trial,vp,group,stimulus,grapheme,targetVF,response,RT,SOA,ISI,domEye,gaborRotation,gaborWlength,xCoord,yCoord,fontType
1,K01,control,inducer,M,RVF,right,10.51763597945137,1.3081104045595566,1.605552955460838,right,0,NA,917,705,comicsans
2,K01,control,inducer,S,LVF,left,2.1951126208368805,1.1828211935953732,1.7173145876542062,right,0,NA,567,861,comicsans
3,K01,control,gabor,NA,LVF,NA,NA,0.9331293894556438,2.3974762374097,right,116,46.22885544397782,569,642,NA
4,K01,control,non-inducer,Y,RVF,right,4.8964955702449515,0.9831285901891533,1.732275796963528,right,0,NA,919,791,comicsans
5,K01,control,inducer,B,LVF,right,2.119323161557986,1.0581097731665068,2.1246785239080643,right,0,NA,569,795,times
6,K01,control,inducer,B,LVF,left,2.9778863696155895,1.3662237637399812,2.4726302490341037,right,0,NA,560,684,arial
7,K01,control,non-inducer,U,LVF,left,4.9192088332602,1.0414488918377174,1.6171342767239638,right,0,NA,569,641,comicsans
8,K01,control,inducer,M,LVF,left,5.122000670542548,1.4580296362400986,1.9918898840775916,right,0,NA,561,788,comicsans
9,K01,control,inducer,B,RVF,right,3.2228381657459977,0.849816503961847,2.1243250305278014,right,0,NA,918,756,comicsans
10,K01,control,inducer,M,LVF,left,7.338731789424855,0.9333278802423592,2.2357908772761714,right,0,NA,562,801,arial
11,K01,control,non-inducer,J,RVF,left,5.18904693866898,1.183104490632104,2.002159047208382,right,0,NA,919,809,arial
12,K01,control,gabor,NA,LVF,left,3.229810450153309,0.7998295329653047,1.5050574341943501,right,141,49.83149868398304,556,621,NA
13,K01,control,non-inducer,J,RVF,right,4.252672066262676,1.4411441615193326,1.5529646801679182,right,0,NA,928,632,times
14,K01,control,gabor,NA,RVF,right,5.468454907191699,1.4495537277671247,1.645283791169923,right,146,46.25722378528397,923,760,NA
15,K01,control,inducer,E,RVF,left,6.405669514091642,1.1081268290345179,2.4934349573734256,right,0,NA,922,845,arial
16,K01,control,inducer,S,RVF,left,6.101523589384669,1.2497914659343223,1.6106153553854083,right,0,NA,915,834,verdana
17,K01,control,inducer,E,LVF,left,9.697342582438068,1.1414377877481456,1.8143937771811218,right,0,NA,566,798,arial
18,K01,control,non-inducer,X,RVF,right,2.1285450013710943,1.1578665720426216,1.8032157657317154,right,0,NA,919,737,arial
19,K01,control,non-inducer,Y,RVF,right,3.249171306459175,1.082847207564555,2.1773072549974506,right,0,NA,921,716,arial
20,K01,control,inducer,E,LVF,left,0.8746655835129786,1.2914675123338384,1.883259878595939,right,0,NA,555,671,times
21,K01,control,non-inducer,J,LVF,left,3.362750684071216,1.2664255439613044,2.1299135500448596,right,0,NA,557,733,verdana
22,K01,control,non-inducer,X,LVF,left,1.6973491137068777,1.4078098122099618,2.212760237720691,right,0,NA,562,810,arial
23,K01,control,non-inducer,J,RVF,right,1.3489473150584672,1.1414552194619318,2.340724660820904,right,0,NA,921,789,arial
24,K01,control,gabor,NA,RVF,right,6.736241572330982,0.8249293534481694,2.464824159350485,right,160,46.41374369342574,916,642,NA
25,K01,control,inducer,B,LVF,left,0.6543220512412518,0.9414508201152785,1.5624716672461503,right,0,NA,556,692,verdana
26,K01,control,gabor,NA,LVF,left,1.1923775744853629,1.1582040865050658,2.4393515470457143,right,224,56.044007442047096,561,726,NA
27,K01,control,non-inducer,Y,LVF,left,0.981986762053566,1.3747930987501604,1.9943949761550734,right,0,NA,562,733,comicsans
28,K01,control,inducer,B,RVF,right,2.47576806160032,0.9664496242185123,1.8223552014792297,right,0,NA,926,824,verdana
29,K01,control,non-inducer,J,LVF,left,1.8086593421085126,1.29116025044641,1.6065943733191004,right,0,NA,557,632,arial
30,K01,control,non-inducer,Y,RVF,right,4.772837512618935,0.8499848536775971,2.1821839942774446,right,0,NA,917,750,comicsans
31,K01,control,gabor,NA,RVF,right,8.05452209465875,1.0581047510604549,1.9814364480353233,right,337,48.87617310393886,917,702,NA
32,K01,control,inducer,E,LVF,left,0.6223564691590582,0.8081252685369691,1.8288639087785286,right,0,NA,569,685,times
33,K01,control,gabor,NA,RVF,right,8.264826445541985,1.091433145222254,1.5692338429977017,right,236,54.82172802722675,925,816,NA
34,K01,control,gabor,NA,LVF,left,1.4372628138826258,1.2912569332511339,1.7481601176454538,right,291,53.56562614626493,566,750,NA
35,K01,control,gabor,NA,RVF,right,4.336933824568405,0.8498346345058962,1.8951104180455727,right,223,48.42591108988949,916,836,NA
36,K01,control,gabor,NA,RVF,right,4.047410476527148,1.3744220773769484,2.291243019605278,right,340,55.833760900001515,915,761,NA
37,K01,control,non-inducer,Y,LVF,left,0.7355576552381535,1.0747722910618904,1.6986163619650227,right,0,NA,566,718,arial
38,K01,control,non-inducer,Y,LVF,left,1.1527038517688197,1.1580965107223165,1.6700254533521612,right,0,NA,564,779,arial
39,K01,control,inducer,B,LVF,left,0.6885300354369974,1.1744663299941749,1.589327168001506,right,0,NA,556,768,times
40,K01,control,gabor,NA,LVF,left,0.7256382137657056,0.7998215571715264,2.485562586722658,right,139,55.365249828083904,562,766,NA
41,K01,control,non-inducer,X,LVF,left,0.7630673572821252,0.8247678422794706,2.4688383664066693,right,0,NA,566,630,arial
42,K01,control,non-inducer,J,LVF,left,0.919149118806672,1.2411684259495814,1.5693031930400987,right,0,NA,560,648,comicsans
43,K01,control,non-inducer,U,LVF,left,1.9292710295940196,1.1414613432170881,2.153558081764379,right,0,NA,569,780,times
44,K01,control,inducer,E,RVF,right,2.546153984914781,0.9331205349590164,2.372809209249464,right,0,NA,923,676,verdana
45,K01,control,inducer,E,RVF,right,1.8644139803982398,1.1664413825783413,2.4267966176213833,right,0,NA,915,754,comicsans
46,K01,control,inducer,B,RVF,right,2.418358213317333,0.8748085622846702,1.7071671866803126,right,0,NA,928,750,arial
47,K01,control,inducer,B,LVF,left,1.041834639483568,1.308202775353493,1.8081096930181522,right,0,NA,556,754,comicsans
48,K01,control,inducer,M,LVF,left,1.571603538330237,0.9331490984986885,2.135031697858388,right,0,NA,555,763,arial
49,K01,control,inducer,B,RVF,right,1.6534658330692764,0.9081213552090048,2.3507306168704063,right,0,NA,923,870,comicsans
50,K01,control,inducer,B,RVF,right,2.2385822544820257,1.46613966345285,1.6084464728983139,right,0,NA,929,799,arial
51,K01,control,inducer,S,LVF,left,2.855119052579539,1.3244957370025077,2.337015502460798,right,0,NA,556,714,verdana
52,K01,control,inducer,B,LVF,left,0.769444985260634,1.266193757941437,1.9624258106820354,right,0,NA,557,649,arial
53,K01,control,gabor,NA,RVF,right,1.1587029772017559,1.074813866534896,1.7283946754071033,right,283,45.954730086752605,913,731,NA
54,K01,control,gabor,NA,LVF,left,2.647406060144931,1.4246963426776347,1.8164925856601257,right,247,47.08033437064821,567,617,NA
55,K01,control,inducer,M,RVF,right,1.6700571206074528,1.1578449931894284,1.9618875015198767,right,0,NA,918,684,arial
56,K01,control,inducer,M,RVF,right,1.3636268070622464,1.3744899615321629,1.6714861479734529,right,0,NA,915,848,arial
57,K01,control,inducer,E,RVF,right,1.868471764082642,1.207856163247925,1.6690536108659404,right,0,NA,924,789,arial
58,K01,control,inducer,E,RVF,right,1.5636518746923684,1.0745205084185727,2.2561957129199404,right,0,NA,915,732,verdana
59,K01,control,gabor,NA,RVF,right,7.288426716993854,1.1081406784687715,1.7565846119372668,right,193,55.763468153500376,920,861,NA
60,K01,control,non-inducer,U,RVF,right,3.92974252496424,0.8748860915693513,2.0155448261716487,right,0,NA,927,863,comicsans
61,K01,control,non-inducer,Y,RVF,right,3.7447549250427983,0.9081911138746364,1.9991313282973118,right,0,NA,919,645,verdana
62,K01,control,non-inducer,U,RVF,right,2.5362196148289513,1.1664228173485753,2.014989994422355,right,0,NA,918,679,verdana
63,K01,control,gabor,NA,RVF,right,2.787742799899206,0.8081126322504133,2.301467549588232,right,53,55.14823449049028,918,707,NA
64,K01,control,inducer,B,RVF,right,2.2763155684915546,1.3161571463024302,2.2544868811554357,right,0,NA,920,840,times
65,K01,control,non-inducer,X,RVF,right,4.4176369746928685,1.4828078901155095,1.554091056267568,right,0,NA,916,809,comicsans
66,K01,control,gabor,NA,RVF,left,5.897329395498673,0.9333558713915409,2.1140095562461023,right,213,51.33534410182552,924,682,NA
67,K01,control,inducer,S,LVF,left,0.8193115296799078,0.9664338084676274,2.024892023532651,right,0,NA,564,648,arial
68,K01,control,inducer,M,LVF,left,1.761405305007429,1.116444408569805,2.3457753511573625,right,0,NA,559,836,verdana
69,K01,control,gabor,NA,RVF,right,4.763494377823008,1.016507249451024,1.8663205672818752,right,128,55.68446344481291,915,870,NA
70,K01,control,inducer,E,RVF,right,0.9607697815008578,1.1664343519896647,2.364270136801001,right,0,NA,921,636,times
71,K01,control,gabor,NA,RVF,right,0.0032329778041457757,1.4494783249701868,2.388767482212487,right,37,46.93436673542831,920,721,NA
72,K01,control,gabor,NA,LVF,left,2.1079438261167525,1.4496843531342165,1.7762968267818577,right,169,50.44638525882864,570,868,NA
73,K01,control,gabor,NA,LVF,left,1.2596228907896148,1.4661408803331142,2.4724336805569855,right,145,53.60840561799894,560,633,NA
74,K01,control,gabor,NA,LVF,right,0.3155131306484691,1.4164319734918536,2.3969050113976675,right,277,52.054834390157986,568,626,NA
75,K01,control,gabor,NA,LVF,left,4.062879940982384,1.0998767767378013,1.8811590209332314,right,360,50.345870506947435,568,771,NA
76,K01,control,non-inducer,Y,RVF,right,1.3193656459025078,1.0248027470806846,1.6202286449134158,right,0,NA,927,749,comicsans
77,K01,control,gabor,NA,LVF,left,3.361351126583031,1.2912951878224703,1.6820843652078987,right,119,54.95995125001779,571,840,NA
78,K01,control,non-inducer,X,LVF,left,2.748691413746201,1.466169182496742,2.2326400235709865,right,0,NA,567,728,verdana
79,K01,control,inducer,B,LVF,left,0.9587195852836885,1.3744882144255826,2.4167455876484776,right,0,NA,559,628,times
80,K01,control,non-inducer,X,RVF,NA,NA,0.8414169051229692,2.476739485540136,right,0,NA,925,766,comicsans
81,K01,control,non-inducer,X,RVF,right,1.0081146343345608,1.1081014449573559,2.1258742299998175,right,0,NA,918,727,times
82,K01,control,non-inducer,J,RVF,right,2.5967899749375647,0.9497812973149848,1.8685691514017342,right,0,NA,924,826,arial
83,K01,control,non-inducer,X,RVF,right,3.455075137577296,1.0247824853468046,1.8977134676746457,right,0,NA,927,802,arial
84,K01,control,non-inducer,Y,LVF,right,1.903081576785553,0.91645486946436,1.708189908243872,right,0,NA,557,638,verdana
85,K01,control,gabor,NA,RVF,right,2.4543053809557023,1.4414053476157278,2.052128559754417,right,326,55.329828728175016,917,792,NA
86,K01,control,non-inducer,X,LVF,left,0.9202283331396757,1.1494689854171156,2.312055188669282,right,0,NA,559,661,verdana
87,K01,control,non-inducer,U,LVF,left,2.2520895393354294,1.2497593482476077,2.360764654629564,right,0,NA,565,804,arial
88,K01,control,gabor,NA,LVF,left,2.915953462535981,1.1168104893404234,2.457622637187714,right,255,48.204462447029755,570,727,NA
89,K01,control,inducer,E,RVF,right,2.042642339662052,1.4164067814581358,1.647066398092515,right,0,NA,923,703,comicsans
90,K01,control,gabor,NA,LVF,left,5.3754384502608445,1.13314643538979,1.6664194331677562,right,198,52.70148670690921,567,718,NA
91,K01,control,non-inducer,X,LVF,left,0.6933389149762661,1.1997539188232622,1.6704364870019663,right,0,NA,555,626,arial
92,K01,control,gabor,NA,LVF,left,3.818287675621832,1.4494871335646167,2.191388477092904,right,324,51.019538013161174,566,694,NA
93,K01,control,gabor,NA,RVF,right,4.561259564421562,0.9827842887461884,2.2459236954321087,right,218,53.82401972502422,928,756,NA
94,K01,control,non-inducer,X,LVF,left,3.578353137590966,1.3244510392305529,1.9685755125639868,right,0,NA,568,665,comicsans
95,K01,control,gabor,NA,RVF,right,3.023077147961885,0.8498890617429424,1.6967264656361771,right,319,47.949669429174484,919,731,NA
96,K01,control,gabor,NA,RVF,right,5.761619903822066,0.8083445971788024,2.361181890895306,right,244,46.765240425037106,926,822,NA
97,K01,control,inducer,E,LVF,left,1.1628652611798316,1.0995582996547455,2.3631471188594175,right,0,NA,571,820,arial
98,K01,control,inducer,M,RVF,right,0.6638247355913336,1.458101177613571,1.9476332214313148,right,0,NA,915,628,times
99,K01,control,gabor,NA,LVF,left,1.037691327284847,0.8664741833581502,2.316149840422857,right,275,54.770240550085795,562,798,NA
100,K01,control,non-inducer,Y,LVF,left,0.8018235923082102,1.0748072809346922,2.377657610461781,right,0,NA,564,700,times
101,K01,control,non-inducer,X,RVF,right,0.8134934136814991,1.3161955929172109,2.189153813633866,right,0,NA,926,812,verdana
102,K01,control,gabor,NA,RVF,right,2.477296067369025,1.3328257570501592,2.150691900192392,right,82,49.55558910592973,927,813,NA
103,K01,control,non-inducer,J,LVF,left,1.1242328092357639,1.2327857492036856,2.0698152568076558,right,0,NA,564,855,arial
104,K01,control,inducer,S,LVF,left,1.3878080503782257,1.466419263937496,2.0697443087808964,right,0,NA,561,676,verdana
105,K01,control,gabor,NA,LVF,left,2.780587328967158,1.4497397677423578,2.185530822725193,right,271,51.161772166142804,567,644,NA
106,K01,control,inducer,S,RVF,right,0.6608632719417074,1.0747940347882832,1.6796808989093996,right,0,NA,919,657,comicsans
107,K01,control,non-inducer,X,RVF,right,2.2068844544010062,1.316159945416075,1.8147745505577622,right,0,NA,915,772,times
108,K01,control,inducer,M,RVF,right,2.5211435815363075,1.2830919420175633,1.5686007214281412,right,0,NA,925,870,verdana
109,K01,control,gabor,NA,LVF,left,2.7145910399704007,0.7997547353243135,2.1036058282423773,right,303,47.96460019795657,561,659,NA
110,K01,control,gabor,NA,LVF,left,1.7026783176206663,1.3414161950258858,2.1406493614157736,right,139,55.633743154229776,567,840,NA
111,K01,control,inducer,S,LVF,left,1.3314522243945248,1.0081190428463742,1.7665403646683466,right,0,NA,565,732,comicsans
112,K01,control,inducer,S,RVF,right,1.7442787644831697,1.208123775675631,1.756412972526283,right,0,NA,923,765,times
113,K01,control,non-inducer,J,LVF,left,1.26285493555406,1.0747784110808425,2.457368268517251,right,0,NA,570,768,times
114,K01,control,gabor,NA,RVF,right,5.960576331553966,0.9582126344575954,1.645021269200803,right,50,48.42802234818451,926,736,NA
115,K01,control,gabor,NA,RVF,right,5.642036735585862,1.3664652829593251,2.259320021140239,right,175,47.37969348080292,917,689,NA
116,K01,control,non-inducer,U,RVF,right,0.6372297221241752,1.2245225191345526,1.8084056007543934,right,0,NA,925,778,times
117,K01,control,non-inducer,U,LVF,left,1.3710926687454048,1.0747971177497675,2.318218569739612,right,0,NA,558,760,verdana
118,K01,control,non-inducer,X,RVF,right,2.6461389940959634,1.2828718180426222,1.6012632857875015,right,0,NA,922,846,verdana
119,K01,control,inducer,S,LVF,left,0.7995018819383404,1.0412188051523117,1.6823174648033328,right,0,NA,571,811,arial
120,K01,control,inducer,S,RVF,right,1.1070493533734407,1.1331165781630261,1.8189366850697746,right,0,NA,920,711,comicsans
121,K01,control,non-inducer,J,RVF,right,2.4401256864821335,1.008156913336279,2.3920318930191034,right,0,NA,926,671,comicsans
122,K01,control,non-inducer,U,RVF,right,2.3470532472529158,1.1081220636042417,1.5161926121367786,right,0,NA,922,869,verdana
123,K01,control,non-inducer,J,RVF,right,2.6611805049742543,1.1161821058267378,2.469962131678896,right,0,NA,926,795,times
124,K01,control,non-inducer,X,RVF,right,2.49858489187136,1.0331760438057245,2.4995981553547697,right,0,NA,928,848,arial
125,K01,control,gabor,NA,LVF,left,2.7247465401396767,0.8662800570509717,2.385995785031957,right,54,53.49249079443954,556,835,NA
126,K01,control,gabor,NA,RVF,right,4.293644267319905,0.9164755611818691,1.9402153355854352,right,217,51.85639611101179,928,830,NA
127,K01,control,inducer,S,RVF,right,2.787024982411822,1.3414762204920407,1.777987238375851,right,0,NA,927,849,arial
128,K01,control,inducer,M,LVF,left,1.208423967640556,1.4748390664390172,1.5148928244339093,right,0,NA,564,798,verdana
129,K01,control,non-inducer,Y,LVF,left,1.2529840120769222,1.4661481610328337,2.27092008902751,right,0,NA,561,829,times
130,K01,control,gabor,NA,RVF,right,2.0304845392438438,1.432815934480459,2.3626164354263492,right,122,49.57339441744437,926,850,NA
131,K01,control,gabor,NA,LVF,left,0.6833737546276097,1.2911649090710853,2.4644667155300795,right,87,54.54846620779719,566,844,NA
132,K01,control,inducer,S,LVF,left,1.3718425205479434,0.9414970111465664,1.7264970825521733,right,0,NA,563,819,arial
133,K01,control,gabor,NA,LVF,left,0.8943638886794361,1.2664649217458646,2.055639615561882,right,341,55.23495377039173,568,755,NA
134,K01,control,inducer,M,LVF,left,1.586522199158935,0.7914657230612647,1.5344429136270867,right,0,NA,571,631,comicsans
135,K01,control,inducer,M,LVF,left,1.6897411191857827,1.0163968090146227,1.9612488498224323,right,0,NA,561,803,verdana
136,K01,control,gabor,NA,RVF,right,3.0408275801146374,1.0578489983217878,2.0622456853484756,right,357,51.15310885264639,918,867,NA
137,K01,control,non-inducer,Y,RVF,right,2.0037616995232383,1.2578388297024503,2.30013717849227,right,0,NA,927,673,arial
138,K01,control,non-inducer,U,RVF,right,0.6314178263819485,1.2244987172907713,1.6084077608830816,right,0,NA,927,739,times
139,K01,control,gabor,NA,LVF,left,5.7947679564786085,1.233114439108249,2.17398024237997,right,358,50.26400789810842,568,851,NA
140,K01,control,inducer,S,RVF,right,2.088033099224049,0.8581514627458091,1.7469609870313467,right,0,NA,927,674,verdana
141,K01,control,non-inducer,Y,RVF,right,0.7199958199871617,1.199786337223486,2.061969359212707,right,0,NA,923,699,verdana
142,K01,control,gabor,NA,RVF,right,2.66239376581143,1.3412391744222987,2.4669745020851326,right,160,53.697389515259026,926,798,NA
143,K01,control,non-inducer,X,RVF,right,0.8041381493876543,0.92479005775931,2.4907564797042383,right,0,NA,925,867,comicsans
144,K01,control,non-inducer,J,RVF,right,0.8758931509382819,0.8917352086991741,2.165558619662628,right,0,NA,916,695,verdana
145,K01,control,non-inducer,U,LVF,left,3.412605410005199,1.4828116953394783,1.5008943821685727,right,0,NA,565,823,verdana
146,K01,control,inducer,E,LVF,left,1.4163251228037552,1.0245172373524838,1.7062580281661663,right,0,NA,556,807,comicsans
147,K01,control,inducer,S,RVF,right,1.2692232331519335,1.1495107838363765,2.165036436029279,right,0,NA,928,777,comicsans
148,K01,control,non-inducer,J,RVF,right,1.2956683384636563,0.8495364004229486,2.1137087693135266,right,0,NA,917,831,verdana
149,K01,control,gabor,NA,RVF,right,2.311885788643849,1.3663656633343635,2.0429869786818653,right,83,50.397463925612925,916,640,NA
150,K01,control,gabor,NA,LVF,left,1.9071757489655283,1.4249613255615259,2.145057810755225,right,336,47.396664754962046,568,846,NA
151,K01,control,gabor,NA,LVF,left,1.8800660093511397,1.1497580848972575,2.208464431368819,right,20,52.52552535890718,568,749,NA
152,K01,control,non-inducer,Y,LVF,left,1.0149351445070351,1.149759594058196,1.7949461564172529,right,0,NA,557,655,comicsans
153,K01,control,gabor,NA,RVF,right,2.1557097902459645,1.2247537936709705,2.274930945728177,right,256,50.274510668253996,920,851,NA
154,K01,control,gabor,NA,LVF,left,1.7548192984668276,0.9995245158006583,2.070614213750601,right,45,54.72009621925339,561,828,NA
155,K01,control,inducer,S,LVF,left,0.6797268188183807,1.199507742845526,1.9917139602257312,right,0,NA,569,871,verdana
156,K01,control,non-inducer,X,LVF,left,1.325543914694208,1.2995066333314753,2.103016188208663,right,0,NA,559,871,times
157,K01,control,gabor,NA,LVF,left,1.9413753358167014,1.1413987565774733,1.956543625021812,right,249,52.867076652560144,568,833,NA
158,K01,control,inducer,M,LVF,left,1.588247076013431,0.9911927027478669,2.152929669589026,right,0,NA,571,640,times
159,K01,control,gabor,NA,LVF,left,1.2388254664729175,1.182836259915348,2.1229744705057687,right,176,50.071128222841836,562,652,NA
160,K01,control,inducer,E,LVF,left,1.1966372054630483,1.1161792336442886,2.4353435689205014,right,0,NA,563,737,verdana
161,K01,control,non-inducer,U,RVF,right,0.7842852708708961,0.9998684415950265,1.571659115959826,right,0,NA,924,832,arial
162,K01,control,non-inducer,U,LVF,left,1.2343425283233955,1.3910978020794573,2.4245640278517033,right,0,NA,569,859,comicsans
163,K01,control,gabor,NA,LVF,left,1.4541430322879023,1.233042494919573,2.04102260181799,right,249,49.156481648969745,566,686,NA
164,K01,control,inducer,M,LVF,left,0.6446940287405596,1.1414513177369372,2.3183535151358168,right,0,NA,561,729,times
165,K01,control,gabor,NA,RVF,right,4.045323580801778,1.28282808421136,1.9194215811112847,right,49,47.920333749610116,915,663,NA
166,K01,control,non-inducer,J,RVF,right,0.9882079506060109,1.0831293420542352,1.8868409549799767,right,0,NA,913,783,comicsans
167,K01,control,non-inducer,X,RVF,right,1.0773641169635084,0.7998763413197594,1.856707141026787,right,0,NA,928,685,times
168,K01,control,inducer,B,LVF,left,1.5700948153553327,1.382777661372529,1.9461170019849643,right,0,NA,568,825,comicsans
169,K01,control,non-inducer,U,RVF,right,4.39528728561163,1.4580833805484872,1.6190580814028932,right,0,NA,918,632,times
170,K01,control,gabor,NA,RVF,right,2.2816242455610336,0.9748137826009042,2.0483862207370724,right,243,49.944336249957935,923,660,NA
171,K01,control,inducer,E,LVF,left,0.5929318614544172,0.899822885159665,1.7601414240274615,right,0,NA,562,873,arial
172,K01,control,non-inducer,U,LVF,left,0.6194012257637951,1.0081760312550614,2.0928678093285837,right,0,NA,557,786,comicsans
173,K01,control,gabor,NA,LVF,left,1.537175668101554,0.999820546592673,1.907023303501675,right,53,52.897850904233856,555,786,NA
174,K01,control,non-inducer,J,LVF,left,0.9264227745952667,1.2580927079325193,1.7858001261227718,right,0,NA,559,633,times
175,K01,control,gabor,NA,LVF,left,1.7048271048879542,1.4078195538440923,1.5915383613356868,right,81,48.83482828170052,563,848,NA
176,K01,control,inducer,B,RVF,right,0.5063950446947274,1.449485532601102,2.397731628869468,right,0,NA,916,645,arial
177,K01,control,gabor,NA,LVF,left,0.9809035045545897,1.4831044820311945,1.7698996601045132,right,80,49.277283402067,568,729,NA
178,K01,control,inducer,M,LVF,left,1.7266259903426544,1.2661664159841166,2.120830018581782,right,0,NA,558,857,times
179,K01,control,non-inducer,J,LVF,left,0.6701756164729886,1.0578485955047654,2.027891806106384,right,0,NA,569,747,comicsans
180,K01,control,inducer,S,RVF,right,1.7032300542832672,1.0162572598164843,1.8605633220288103,right,0,NA,923,758,arial
181,K01,control,gabor,NA,RVF,right,6.488271708225511,1.2913797832989076,2.1554078120790794,right,119,52.738228610637094,927,804,NA
182,K01,control,inducer,S,RVF,right,1.5872991090727737,0.816475842595537,1.7767979652068697,right,0,NA,925,765,times
183,K01,control,inducer,M,RVF,right,0.7295314716939174,1.4580909366577544,1.668085987064587,right,0,NA,929,683,comicsans
184,K01,control,non-inducer,U,RVF,right,1.1213798890421458,1.3081097450649395,2.2121992470275487,right,0,NA,925,859,arial
185,K01,control,gabor,NA,RVF,right,5.027049092122979,1.274705455349249,1.5596931005598296,right,158,49.017875447594825,924,762,NA
186,K01,control,non-inducer,Y,LVF,left,0.5846495912355749,1.0082045170256606,2.3069990800638402,right,0,NA,571,839,arial
187,K01,control,non-inducer,J,LVF,left,1.1397224895208637,1.4411485428663582,1.5027907482664449,right,0,NA,563,726,verdana
188,K01,control,gabor,NA,RVF,right,1.2486245460004284,1.2416619029863796,1.9761185564210095,right,98,53.885149194345516,928,729,NA
189,K01,control,inducer,S,LVF,left,0.558763686894963,0.9578556920296251,2.4188611386479417,right,0,NA,555,738,times
190,K01,control,gabor,NA,RVF,right,1.4175993421449675,1.02479858494371,2.067955505530097,right,301,55.37345778684848,923,784,NA
191,K01,control,inducer,B,RVF,right,1.3630505003875442,1.3911543455051287,2.096127689313383,right,0,NA,920,862,comicsans
192,K01,control,gabor,NA,RVF,right,3.428656779362427,0.9828569842320576,1.6619325837064793,right,78,52.81624053470464,926,714,NA
193,K01,control,inducer,B,LVF,left,0.831115708571815,0.9831418635003502,2.028304053126033,right,0,NA,560,626,verdana
194,K01,control,inducer,B,RVF,right,1.0581460155226523,1.0328097944257024,2.489001389608938,right,0,NA,923,661,times
195,K01,control,inducer,S,RVF,right,0.6490637582410272,0.9997897366301913,2.437882926370766,right,0,NA,925,651,arial
196,K01,control,inducer,B,RVF,right,0.43952294372502365,1.0328579133365565,1.9413450398103786,right,0,NA,913,867,verdana
197,K01,control,non-inducer,J,LVF,left,0.5786548199812387,0.799819142137494,2.196414774799494,right,0,NA,572,726,comicsans
198,K01,control,non-inducer,X,LVF,left,1.2613312839657738,1.0662656260592485,1.7797644103360333,right,0,NA,559,714,comicsans
199,K01,control,inducer,M,RVF,right,0.6592534698138479,1.2161690269913379,2.272689755242719,right,0,NA,915,661,comicsans
200,K01,control,inducer,S,LVF,left,0.6431678890494368,1.0665383842642768,2.129487443128809,right,0,NA,556,656,times
201,K01,control,non-inducer,U,RVF,right,1.5722597752865113,0.9581360606807721,1.8508457443833932,right,0,NA,915,753,comicsans
202,K01,control,gabor,NA,RVF,right,5.488721121684648,1.066465432100813,2.4848082064897614,right,138,54.848479086889576,926,783,NA
203,K01,control,non-inducer,U,RVF,right,0.8549430193488661,0.8081575866963249,2.4203834233037353,right,0,NA,916,627,verdana
204,K01,control,gabor,NA,RVF,right,4.150664540997241,1.11646746941733,1.8156941509142701,right,246,49.09935482414093,919,831,NA
205,K01,control,non-inducer,X,LVF,left,0.6860792547649908,0.8331539757637074,2.313048432331165,right,0,NA,556,627,comicsans
206,K01,control,non-inducer,J,LVF,left,0.7558795410186576,1.1414168393548607,1.6873329149889869,right,0,NA,569,845,times
207,K01,control,non-inducer,X,RVF,right,2.756582740907106,1.3911065104366571,1.565242663162501,right,0,NA,916,626,verdana
208,K01,control,gabor,NA,LVF,left,1.3396212859624939,0.8664940338421729,1.565978026488161,right,152,52.661208911818406,565,675,NA
209,K01,control,inducer,E,LVF,left,1.2781122892956773,1.2161720453150338,2.440304908788391,right,0,NA,561,758,comicsans
210,K01,control,inducer,E,RVF,right,0.7750419711737777,1.0911815817908064,2.347245168896192,right,0,NA,921,731,arial
211,K01,control,gabor,NA,RVF,right,4.055357163961162,1.2079114185853541,2.0918826555289267,right,341,51.1467680231777,925,619,NA
212,K01,control,inducer,M,RVF,right,2.278138725381723,1.4244775358220068,2.1578084763789245,right,0,NA,929,802,verdana
213,K01,control,inducer,M,RVF,right,2.541412284133912,1.4245685164260067,2.0226744648072366,right,0,NA,916,794,times
214,K01,control,gabor,NA,LVF,left,2.318024558813704,1.1331718738001655,1.6803206559276413,right,116,55.23527427066336,561,839,NA
215,K01,control,non-inducer,Y,LVF,left,0.7783063612696424,1.0828078241793264,2.378184287836059,right,0,NA,568,624,times
216,K01,control,non-inducer,U,LVF,left,0.5624572746201011,0.8248083507442061,1.655087332428426,right,0,NA,557,672,arial
217,K01,control,inducer,M,RVF,right,3.1086146806737815,1.2081369028474,1.6032014950759907,right,0,NA,915,873,verdana
218,K01,control,gabor,NA,LVF,left,2.618221865317537,1.2916634269495262,1.7724755117379833,right,46,49.0842926653562,571,818,NA
219,K01,control,gabor,NA,LVF,left,0.7420634204809176,1.4912056837802083,1.6982891860628986,right,130,48.74310928517032,570,688,NA
220,K01,control,non-inducer,Y,RVF,right,0.871905034115116,1.1161959280962037,2.1594700822875925,right,0,NA,920,691,arial
221,K01,control,gabor,NA,RVF,right,2.599289895630136,0.9162718478146417,1.984127231128253,right,350,54.24158578982818,913,624,NA
222,K01,control,non-inducer,Y,RVF,right,0.6330755244762258,1.2744996922974678,2.345857021537526,right,0,NA,924,774,times
223,K01,control,gabor,NA,LVF,left,4.705512266033111,1.0914453206260077,2.3685563513513617,right,108,47.892514073615835,559,832,NA
224,K01,control,non-inducer,U,LVF,left,1.1199610487601603,1.2328414429612167,2.197942677532569,right,0,NA,567,696,verdana
225,K01,control,inducer,B,LVF,left,1.249951948526359,1.4414580652137374,1.9444469118096168,right,0,NA,571,619,verdana
226,K01,control,inducer,M,LVF,left,3.8109312904362014,1.416199884892194,2.190532066239146,right,0,NA,571,812,comicsans
227,K01,control,non-inducer,U,LVF,left,1.895147329862084,0.8914385259431583,1.5074361241311807,right,0,NA,562,742,times
228,K01,control,non-inducer,J,LVF,left,0.5998130191201199,0.9497884777774743,2.408437670520848,right,0,NA,555,786,arial
229,K01,control,non-inducer,Y,LVF,left,1.7451464901259897,0.8414644020085689,1.8572051174145672,right,0,NA,556,738,comicsans
230,K01,control,gabor,NA,RVF,right,0.6987057514343178,1.2164273596372368,1.7404810680059262,right,297,52.6065608979626,925,799,NA
231,K01,control,inducer,B,RVF,right,1.7897267503940384,1.2911991120436142,1.9519400081479867,right,0,NA,929,863,times
232,K01,control,inducer,E,LVF,left,1.8469913557109976,1.3078287272219313,2.307420878472351,right,0,NA,557,711,comicsans
233,K01,control,inducer,E,LVF,left,1.8389003583488375,1.133117922452584,2.1948782959247395,right,0,NA,571,826,verdana
234,K01,control,gabor,NA,LVF,left,0.6351418933591049,1.4498287361311668,2.1239182294002306,right,26,52.996570632673745,563,841,NA
235,K01,control,non-inducer,U,RVF,right,0.6946716047204973,1.0581273903553665,1.523598344022961,right,0,NA,916,660,comicsans
236,K01,control,gabor,NA,RVF,right,5.071327047971863,0.8249026063494966,1.9667527189906138,right,276,50.55264941396944,930,850,NA
237,K01,control,non-inducer,Y,LVF,left,1.2099258483340236,1.299773147846281,2.2619762248669915,right,0,NA,557,666,verdana
238,K01,control,gabor,NA,RVF,right,0.9210015109001688,1.0828548180106736,1.6236242130984295,right,199,48.284526120604866,919,806,NA
239,K01,control,non-inducer,J,RVF,right,4.830746536405059,1.3494830064628331,2.0150929683155128,right,0,NA,922,727,times
240,K01,control,non-inducer,U,LVF,left,0.930647572140515,1.2497859679424437,2.2279526870459296,right,0,NA,562,849,times
241,K01,control,gabor,NA,LVF,left,1.5864599966025708,0.9081264503856801,2.2662543795737298,right,261,55.41496357886145,559,834,NA
242,K01,control,non-inducer,Y,RVF,right,4.739630367535938,1.1580885620951449,2.27460219648906,right,0,NA,918,830,times
243,K01,control,gabor,NA,LVF,left,2.4328066228299576,1.3997628409597382,1.5305457079511833,right,149,50.40492797125595,560,664,NA
244,K01,control,non-inducer,X,LVF,left,0.6467240091296844,1.4244729980346165,2.377779790257625,right,0,NA,558,637,times
245,K01,control,inducer,S,LVF,left,0.812231634850832,1.4744924145998084,2.260134260479478,right,0,NA,568,699,times
246,K01,control,gabor,NA,LVF,left,1.7153981181236304,1.157835351794347,1.7679298279184446,right,158,49.718180416518116,568,690,NA
247,K01,control,non-inducer,J,RVF,right,1.3370143768752314,0.8664710188968456,1.7355212885554452,right,0,NA,920,771,verdana
248,K01,control,inducer,S,LVF,left,1.0469231195074826,1.4080905377777526,2.124763199771442,right,0,NA,572,851,comicsans
249,K01,control,inducer,E,RVF,right,0.7374635415289958,1.1247746478238696,1.5046436922962712,right,0,NA,917,638,times
250,K01,control,inducer,B,LVF,left,0.9771931221384875,1.3744786273673526,2.1511346824664264,right,0,NA,564,806,comicsans
251,K01,control,inducer,E,LVF,left,0.9207595429597859,0.8414392558770487,1.6622411934136236,right,0,NA,558,639,verdana
252,K01,control,gabor,NA,RVF,right,1.3537885399255174,0.9247411285159615,2.0694033185717737,right,206,55.73819355464275,919,840,NA
253,K01,control,gabor,NA,LVF,left,0.9992607226322434,1.199500178301605,1.7733888500445336,right,147,50.600732857009675,567,767,NA
254,K01,control,gabor,NA,LVF,left,3.4499944328708807,1.3078281323632837,2.206742202508352,right,14,53.86954642034709,567,873,NA
255,K01,control,gabor,NA,LVF,left,1.6410380735633225,1.457756587622498,1.581679062372531,right,136,50.037240596342635,561,828,NA
256,K01,control,non-inducer,U,LVF,left,0.7575512346902542,0.7915119908957422,1.906384385335055,right,0,NA,561,716,arial
257,K01,control,gabor,NA,RVF,right,4.211039585083199,0.9745259580777201,1.5250891984496056,right,106,52.1607532969357,918,709,NA
258,K01,control,gabor,NA,LVF,left,0.5765766326148878,1.4996877431731264,1.8290521730373501,right,196,51.03357700801232,571,747,NA
259,K01,control,gabor,NA,RVF,right,4.763610385587526,1.3244933135356405,1.5532134118971126,right,232,55.234382387655494,924,836,NA
260,K01,control,inducer,M,RVF,right,1.6068456400062132,1.1497707446142158,1.831166771008278,right,0,NA,921,853,times
261,K01,control,non-inducer,X,LVF,left,1.6207631507077167,1.1081071621592855,1.7717564303425908,right,0,NA,568,769,times
262,K01,control,gabor,NA,RVF,right,1.0641709550145606,0.84145719437765365,2.195802563321804,right,126,49.09306485022235,929,840,NA
263,K01,control,inducer,E,RVF,right,0.7010032028101705,1.3164697769116174,1.8018911467513559,right,0,NA,917,697,times
264,K01,control,inducer,E,LVF,left,1.2714786978012853,0.8748188210065564,1.708137416131319,right,0,NA,568,698,times
265,K01,control,non-inducer,Y,RVF,right,0.9286993881141825,1.2497595590230048,1.7690616699970445,right,0,NA,921,634,verdana
266,K01,control,inducer,M,RVF,right,0.5611948737641796,1.466397877124109,1.9102835039302466,right,0,NA,924,715,arial
267,K01,control,gabor,NA,RVF,right,3.2416273805683886,1.2664224984710017,2.2641055636952703,right,303,48.037146501689314,924,816,NA
268,K01,control,non-inducer,X,LVF,left,1.6605923798142612,0.9581718917852413,1.633467636537604,right,0,NA,556,828,verdana
269,K01,control,inducer,M,LVF,left,1.1070925841504504,1.4246674184869335,2.240989003641336,right,0,NA,563,696,arial
270,K01,control,non-inducer,U,RVF,right,1.0273513965403254,1.449760229950698,1.5670468892262437,right,0,NA,919,789,arial
271,K01,control,non-inducer,Y,LVF,left,0.6731983496429166,1.1664646101653489,1.5040030964002484,right,0,NA,572,736,verdana
272,K01,control,non-inducer,J,LVF,left,1.1569292713411414,1.3414255713141756,2.24523090038862,right,0,NA,562,668,verdana
273,K01,control,gabor,NA,LVF,left,1.702447857152947,1.0914928250404046,1.5197445582543636,right,294,48.73317589910153,563,788,NA
274,K01,control,inducer,B,LVF,left,0.6860126980300265,1.4578055271686026,1.9601265804664068,right,0,NA,565,755,arial
275,K01,control,inducer,E,RVF,right,0.6082290248323261,1.4328051951706584,1.774808301566909,right,0,NA,914,615,comicsans
276,K01,control,non-inducer,J,RVF,right,1.3053010261555755,1.2828321273773327,1.512134042486143,right,0,NA,920,764,comicsans
277,K01,control,gabor,NA,RVF,right,2.0247992257027363,1.2328557917171565,2.338515691941812,right,298,52.40101577795531,919,729,NA
278,K01,control,gabor,NA,LVF,left,0.9194103695390368,1.1081032838665124,2.4208025078552087,right,122,53.28273896429117,558,859,NA
279,K01,control,inducer,E,RVF,right,1.0408477959463198,0.7998073508188099,1.8849075928441814,right,0,NA,925,781,verdana
280,K01,control,non-inducer,Y,RVF,right,0.6253123345795757,1.0414597772851266,2.3743481967169586,right,0,NA,924,786,times
281,K01,control,gabor,NA,LVF,left,2.1500552669695026,0.8415189220104367,1.5557143604165917,right,218,47.46343195049138,562,775,NA
282,K01,control,gabor,NA,LVF,left,0.5556563582522358,1.033182886087161,1.7099550315352898,right,240,53.21999887222741,559,631,NA
283,K01,control,gabor,NA,RVF,right,4.260044935126643,1.1497551021730033,2.118875685871166,right,43,50.865406594980215,925,714,NA
284,K01,control,inducer,S,RVF,right,0.7863696784952481,1.4661461488158238,2.3376531557586966,right,0,NA,917,764,times
285,K01,control,inducer,B,RVF,right,1.9996846330468543,0.8748032703661011,1.666293140484403,right,0,NA,919,674,verdana
286,K01,control,inducer,S,RVF,right,2.722413011280878,1.1828453439211444,2.3124438436511245,right,0,NA,916,639,verdana
287,K01,control,gabor,NA,RVF,right,2.832421029192119,1.4331263439635222,1.5565909717246407,right,228,50.76520967461831,923,786,NA
288,K01,control,gabor,NA,RVF,right,1.0250810032757727,1.2580984607357095,1.9041374974740186,right,271,46.22284099490771,929,630,NA
1,K02,control,inducer,A,RVF,NA,NA,0.8581501068210855,1.980940541039111,left,0,NA,2000,718,comicsans
2,K02,control,inducer,A,RVF,NA,NA,0.8831005645695313,1.5404701595305355,left,0,NA,2001,789,times
3,K02,control,non-inducer,NA,RVF,NA,NA,0.8581739322651174,1.7884581446481802,left,0,NA,2003,680,comicsans
4,K02,control,inducer,9,LVF,NA,NA,1.2328394213739102,1.9632238817922592,left,0,NA,1631,862,arial
5,K02,control,non-inducer,?,RVF,NA,NA,1.4330051196116074,1.539703399331532,left,0,NA,2003,718,verdana
6,K02,control,inducer,A,RVF,NA,NA,0.8831541266849854,1.8338535703795138,left,0,NA,2003,709,arial
7,K02,control,non-inducer,NA,RVF,right,6.487287122160069,0.8748445038897898,2.261840269181411,left,0,NA,1999,647,arial
8,K02,control,inducer,9,RVF,right,4.74024774802092,1.2331692109219148,1.7228361921301372,left,0,NA,1999,859,verdana
9,K02,control,inducer,A,LVF,NA,NA,1.4080587011540047,2.2789909980615928,left,0,NA,1637,693,verdana
10,K02,control,inducer,9,RVF,right,5.479487808693875,1.3414429253266462,2.1746133892092216,left,0,NA,1991,805,verdana
11,K02,control,inducer,9,LVF,left,5.12494918798734,0.8998169143208088,1.5116870834868248,left,0,NA,1636,664,comicsans
12,K02,control,non-inducer,?,LVF,NA,NA,0.8081845447904925,2.4215233152448126,left,0,NA,1640,709,comicsans
13,K02,control,inducer,E,RVF,NA,NA,0.8164745166361627,1.5997110957934417,left,0,NA,1993,846,comicsans
14,K02,control,non-inducer,?,RVF,NA,NA,1.2831133215674981,1.6495256565631438,left,0,NA,1991,780,verdana
15,K02,control,non-inducer,?,RVF,right,2.480307332200482,1.2828360762421198,2.1039321007862704,left,0,NA,1998,709,arial
16,K02,control,non-inducer,#,LVF,left,1.964829534445471,1.2412383882624454,2.369825198019864,left,0,NA,1647,681,times
17,K02,control,inducer,A,LVF,NA,NA,0.9747814543286495,2.362612346283927,left,0,NA,1632,775,comicsans
18,K02,control,gabor,NA,RVF,NA,NA,1.366190161177201,1.701079707948496,left,329,49.639176954365006,2002,627,NA
19,K02,control,gabor,NA,RVF,NA,NA,0.9164903991345454,2.337089230838785,left,183,47.429250414542686,1990,821,NA
20,K02,control,non-inducer,#,RVF,right,5.329346125986376,1.4747768703409747,2.3111452923068754,left,0,NA,1992,744,verdana
21,K02,control,non-inducer,#,LVF,left,5.434075631911583,1.457818373459986,2.406009857290128,left,0,NA,1642,683,verdana
22,K02,control,inducer,E,RVF,NA,NA,1.2829153279396905,1.9186413996217144,left,0,NA,2004,820,verdana
23,K02,control,non-inducer,NA,RVF,NA,NA,1.1498140961327863,1.921035290342489,left,0,NA,2001,670,comicsans
24,K02,control,gabor,NA,RVF,NA,NA,1.24977908629171,1.748566755480415,left,24,53.65519419798678,2002,842,NA
25,K02,control,non-inducer,#,RVF,right,10.16399676171568,1.2580962961187652,2.0548114854511015,left,0,NA,2004,733,times
26,K02,control,inducer,A,LVF,left,7.9847864091589145,1.4661491538722657,1.5088017239741864,left,0,NA,1634,614,arial
27,K02,control,inducer,9,LVF,left,1.4779551286776496,1.166447836728139,1.8755768874705088,left,0,NA,1644,671,times
28,K02,control,inducer,E,RVF,NA,NA,1.3162654733657746,2.2162378161045693,left,0,NA,1995,696,times
29,K02,control,gabor,NA,LVF,left,4.818580510642278,1.258169498610414,2.054936849439459,left,28,49.81796704708628,1632,685,NA
30,K02,control,inducer,E,LVF,left,3.222441694867939,1.1081071332532701,1.7540275439999096,left,0,NA,1646,683,comicsans
31,K02,control,gabor,NA,LVF,left,4.1806024539675946,1.2745360206238274,2.0827007310398944,left,143,46.126352131239514,1632,635,NA
32,K02,control,gabor,NA,LVF,left,3.4627368726175973,1.2994932828619312,1.8595887379295513,left,50,48.30996135053483,1632,743,NA
33,K02,control,inducer,A,RVF,right,0.6473215576979783,1.3830820697730815,1.9700465272183505,left,0,NA,1995,686,comicsans
34,K02,control,non-inducer,NA,LVF,left,3.119300540574386,1.207847180284034,1.6466920328594399,left,0,NA,1638,868,arial
35,K02,control,non-inducer,#,LVF,left,3.1409574211663767,0.866464337806292,2.389101208653073,left,0,NA,1637,782,times
36,K02,control,inducer,A,LVF,left,2.706172053906357,1.2747254285236522,1.781301611802495,left,0,NA,1637,780,comicsans
37,K02,control,gabor,NA,RVF,right,8.624375210517883,1.3001169725962427,1.9572448180964344,left,145,55.80303285429759,2004,626,NA
38,K02,control,inducer,E,LVF,left,1.338579216821472,1.0247764884716162,2.3522195178322867,left,0,NA,1642,684,arial
39,K02,control,gabor,NA,RVF,NA,NA,1.0161906846997226,2.3199985390733144,left,61,46.95280187058371,2005,729,NA
40,K02,control,inducer,A,RVF,NA,NA,1.3994890150629544,2.4260481037990034,left,0,NA,2003,847,times
41,K02,control,gabor,NA,LVF,left,5.237753566326774,1.4580939324077917,2.2561465499464988,left,73,53.42359353550286,1636,780,NA
42,K02,control,gabor,NA,LVF,NA,NA,1.0997302570256124,1.672096194292212,left,236,54.66420511315868,1641,832,NA
43,K02,control,non-inducer,#,LVF,NA,NA,1.1331286355878092,1.9400588885952406,left,0,NA,1634,743,verdana
44,K02,control,inducer,A,RVF,NA,NA,0.9247796435167857,1.710402316984168,left,0,NA,2004,740,comicsans
45,K02,control,non-inducer,NA,LVF,left,2.4407720875581163,0.9997779355658167,2.071571202679247,left,0,NA,1633,784,verdana
46,K02,control,inducer,E,LVF,left,1.3846476344383518,1.132848617001855,1.546639379220383,left,0,NA,1645,873,times
47,K02,control,inducer,A,LVF,left,1.3575193847634637,0.9998054136226528,2.051058442669121,left,0,NA,1647,830,times
48,K02,control,non-inducer,?,RVF,NA,NA,1.4744856552283636,2.479196895946275,left,0,NA,1999,654,times
49,K02,control,gabor,NA,RVF,NA,NA,1.4747409982264799,2.0934601020417776,left,112,54.97406747735285,1998,857,NA
50,K02,control,inducer,A,LVF,left,2.3281891516237465,0.9498048037507942,1.9107325144725644,left,0,NA,1646,661,arial
51,K02,control,non-inducer,NA,RVF,NA,NA,1.1411947492379113,2.1578502140476434,left,0,NA,1997,719,times
52,K02,control,gabor,NA,RVF,right,3.7875536927854228,1.1580663350628129,1.8739402106529917,left,237,55.793007810118795,1998,762,NA
53,K02,control,inducer,9,RVF,right,7.828463622020308,1.033357872386432,1.7705908741353709,left,0,NA,1993,770,verdana
54,K02,control,inducer,9,RVF,right,1.6809189113366756,1.0914170227870272,1.854111836456186,left,0,NA,1998,645,arial
55,K02,control,non-inducer,#,RVF,right,8.645869741481647,1.4078492105588793,1.7963526338337712,left,0,NA,1991,633,times
56,K02,control,non-inducer,?,LVF,NA,NA,1.0747967234217413,2.342947541283518,left,0,NA,1640,751,arial
57,K02,control,gabor,NA,RVF,NA,NA,0.9500659817501855,1.981663037239962,left,178,55.16317272516494,2001,759,NA
58,K02,control,non-inducer,?,LVF,left,2.048461986083339,0.8331351357930998,1.956593512458374,left,0,NA,1638,779,arial
59,K02,control,inducer,E,RVF,right,4.03570105648555,0.999778820204483,1.7234561109354543,left,0,NA,1996,692,times
60,K02,control,non-inducer,?,RVF,NA,NA,0.9745264223456616,1.7230021567891969,left,0,NA,1997,833,verdana
61,K02,control,inducer,E,LVF,left,1.6508776987905094,1.249811291883134,2.3334487260729144,left,0,NA,1635,853,comicsans
62,K02,control,inducer,E,LVF,left,7.965624487797868,1.2914443473421215,2.2432323111741375,left,0,NA,1643,651,arial
63,K02,control,inducer,A,RVF,right,4.71936156164179,1.1247793740083125,1.8399472110145574,left,0,NA,1998,628,arial
64,K02,control,inducer,E,RVF,right,4.21138512535299,0.9081318813928192,2.1556174621847792,left,0,NA,2005,819,arial
65,K02,control,inducer,9,LVF,left,1.1245246530399982,1.4830980663286937,1.6348942904329793,left,0,NA,1641,794,arial
66,K02,control,non-inducer,NA,LVF,left,8.033903081003928,0.8664946633998625,2.49669198463489,left,0,NA,1638,753,verdana
67,K02,control,gabor,NA,LVF,NA,NA,0.8581754700908277,2.444506371546615,left,198,51.42401435758076,1647,772,NA
68,K02,control,non-inducer,NA,LVF,left,5.492441878366662,1.4661540644538036,2.3619431996708404,left,0,NA,1632,641,arial
69,K02,control,non-inducer,#,RVF,NA,NA,1.283091353587679,2.289582013984165,left,0,NA,1997,659,times
70,K02,control,inducer,E,LVF,left,7.595102204067189,1.0832912686068994,2.064867685004929,left,0,NA,1638,773,verdana
71,K02,control,gabor,NA,RVF,NA,NA,1.0831311703568645,2.1764689269052866,left,118,48.498250281125316,1991,625,NA
72,K02,control,non-inducer,?,LVF,NA,NA,1.2245095998764555,1.907882430325634,left,0,NA,1638,760,verdana
73,K02,control,gabor,NA,RVF,NA,NA,1.3830459091782359,2.404440129727022,left,138,55.57472069982711,1995,672,NA
74,K02,control,gabor,NA,LVF,NA,NA,0.9328008589550336,2.050054963764501,left,255,52.14078975266725,1642,824,NA
75,K02,control,non-inducer,?,LVF,NA,NA,0.8331183410041376,2.0205686405845755,left,0,NA,1636,621,verdana
76,K02,control,inducer,E,LVF,left,9.462347171306646,1.0747423509437795,2.04033301820039,left,0,NA,1641,740,comicsans
77,K02,control,non-inducer,?,LVF,NA,NA,0.891487001299538,2.170819212631128,left,0,NA,1643,770,times
78,K02,control,inducer,9,LVF,left,1.9527494158369336,1.4914603162455933,2.3756907874311506,left,0,NA,1638,768,verdana
79,K02,control,non-inducer,NA,LVF,NA,NA,1.2828358308802308,1.9521079050152004,left,0,NA,1645,803,comicsans
80,K02,control,inducer,A,LVF,left,4.265498246966217,1.4164362670126138,1.8660855695023506,left,0,NA,1644,678,verdana
81,K02,control,gabor,NA,RVF,NA,NA,0.8331571037733738,1.6084761994761787,left,88,54.29983432235795,2002,720,NA
82,K02,control,inducer,9,RVF,right,4.317364287995588,1.4994966400954581,2.054519779502366,left,0,NA,1998,764,comicsans
83,K02,control,gabor,NA,RVF,NA,NA,1.457821671939655,1.9269518059188084,left,225,51.69466088310345,1998,688,NA
84,K02,control,inducer,A,RVF,right,7.25794650113221,1.4328200659165304,2.219990589346293,left,0,NA,1991,816,verdana
85,K02,control,gabor,NA,RVF,NA,NA,1.341167366379068,1.8656132709521263,left,226,52.12420422659635,1995,724,NA
86,K02,control,gabor,NA,LVF,left,7.694738845694246,0.9748086352810788,1.713084311078803,left,196,49.65671451399613,1634,656,NA
87,K02,control,gabor,NA,LVF,NA,NA,0.9498119000586485,1.9542712088023952,left,257,48.126919333185704,1646,776,NA
88,K02,control,non-inducer,NA,LVF,left,5.685940553288674,0.9081859979355613,1.683532555156936,left,0,NA,1634,786,times
89,K02,control,gabor,NA,RVF,NA,NA,0.9997664280253957,2.4062258620082515,left,55,49.01434774674933,1996,739,NA
90,K02,control,inducer,A,LVF,left,2.072735121605092,1.0497922871095398,2.019601508052027,left,0,NA,1642,827,comicsans
91,K02,control,non-inducer,#,RVF,right,7.081135626319792,1.141189692054013,1.8515257668976481,left,0,NA,1999,798,arial
92,K02,control,inducer,A,RVF,right,6.806727432701791,1.4411804497458434,1.7845679863178736,left,0,NA,1995,790,times
93,K02,control,gabor,NA,RVF,NA,NA,1.4328261807750096,2.294111353622254,left,146,47.18152560127377,1998,655,NA
94,K02,control,non-inducer,?,RVF,NA,NA,1.2328419837667752,1.610850875939318,left,0,NA,1997,815,comicsans
95,K02,control,inducer,E,LVF,left,5.954180083059782,0.9247970603355498,2.406574252793172,left,0,NA,1639,722,verdana
96,K02,control,inducer,E,RVF,right,6.906962466445293,0.849801156256035,2.107879217172157,left,0,NA,1993,835,arial
97,K02,control,non-inducer,#,LVF,left,1.5213090107463358,1.1081407295055214,2.2245844330810707,left,0,NA,1638,637,arial
98,K02,control,gabor,NA,RVF,NA,NA,1.2999919447215689,1.9128377406598447,left,96,51.40148369754392,1999,847,NA
99,K02,control,inducer,9,RVF,right,1.3637502515330198,1.1828304486020897,2.08240493966903,left,0,NA,1989,679,arial
100,K02,control,gabor,NA,LVF,NA,NA,1.207846794993202,2.440801241351056,left,236,52.42900222288891,1644,838,NA
101,K02,control,gabor,NA,RVF,NA,NA,0.9581640662031532,2.174592874192928,left,350,54.034710109561416,1993,799,NA
102,K02,control,inducer,9,LVF,left,1.2332889515482748,0.966460381021534,2.1761174141259465,left,0,NA,1632,769,comicsans
103,K02,control,gabor,NA,RVF,NA,NA,1.0498260266276702,2.0258200369612407,left,43,48.80172139893664,1996,704,NA
104,K02,control,gabor,NA,LVF,NA,NA,1.266684145688032,1.5479775553215056,left,37,47.106345626982396,1644,850,NA
105,K02,control,gabor,NA,RVF,NA,NA,0.841891055934866,2.4754311725232907,left,117,49.18117579510497,1993,861,NA
106,K02,control,non-inducer,#,RVF,NA,NA,1.0247834050687743,1.9463152293863248,left,0,NA,1989,849,comicsans
107,K02,control,non-inducer,?,LVF,NA,NA,1.2164792509570361,1.7340649785057,left,0,NA,1632,726,times
108,K02,control,gabor,NA,LVF,left,10.930248130568543,0.9914262946408599,1.5407781780912986,left,19,47.32223005355542,1632,813,NA
109,K02,control,gabor,NA,LVF,NA,NA,1.224772438382388,2.2146833584056758,left,313,48.39282688135548,1647,759,NA
110,K02,control,non-inducer,#,RVF,right,6.564270081358245,0.9498358395599098,2.449065697921412,left,0,NA,1997,688,verdana
111,K02,control,non-inducer,NA,LVF,left,4.726843640202333,1.2495071368384743,2.0792772579758507,left,0,NA,1647,715,times
112,K02,control,gabor,NA,LVF,NA,NA,1.26619530499147,1.5681425669904814,left,183,55.26021802739126,1645,791,NA
113,K02,control,inducer,9,LVF,left,4.569544267176298,0.908147874442875,2.3153337112323182,left,0,NA,1632,758,verdana
114,K02,control,non-inducer,?,RVF,NA,NA,1.08311183042224,1.8092476003524292,left,0,NA,2004,730,comicsans
115,K02,control,non-inducer,NA,RVF,right,6.311762914804149,0.9914586142890585,1.711148882110657,left,0,NA,1992,767,arial
116,K02,control,non-inducer,#,LVF,left,1.1484034220316062,1.299779105291691,2.1152811734839574,left,0,NA,1644,841,comicsans
117,K02,control,inducer,E,LVF,left,2.3082680435904877,1.2081037759639912,1.8120021401293633,left,0,NA,1635,709,times
118,K02,control,gabor,NA,LVF,left,3.7878130789731586,1.3914164424318187,2.207740814329484,left,359,47.40179268683253,1640,822,NA
119,K02,control,inducer,E,LVF,left,1.9381289298639786,0.949742033878465,2.0505362417443465,left,0,NA,1640,787,times
120,K02,control,non-inducer,NA,LVF,left,2.475374951442973,1.1498571043357515,1.8240017380634597,left,0,NA,1633,685,comicsans
121,K02,control,inducer,E,RVF,right,5.847606882504806,1.466410309337789,1.6603283569951146,left,0,NA,2001,855,comicsans
122,K02,control,inducer,E,RVF,right,10.967345331654997,1.3664794047681426,2.3247492051805176,left,0,NA,2004,717,verdana
123,K02,control,gabor,NA,RVF,NA,NA,1.2245045407426005,2.291774324125762,left,99,52.80383676229505,1998,635,NA
124,K02,control,inducer,9,RVF,right,3.0560159090196066,1.3998326119349258,2.2774584474541086,left,0,NA,2003,629,times
125,K02,control,gabor,NA,RVF,NA,NA,0.9998149463049231,1.52036517557961,left,103,52.70985428247711,2003,819,NA
126,K02,control,non-inducer,NA,RVF,NA,NA,1.4080404965070556,2.0717493541965677,left,0,NA,1996,624,comicsans
127,K02,control,non-inducer,NA,RVF,right,2.7247822353429,1.3497750068263485,2.438050372904557,left,0,NA,1992,793,times
128,K02,control,gabor,NA,LVF,NA,NA,1.0414680864087131,1.8194334553166651,left,41,50.00405565985388,1638,797,NA
129,K02,control,gabor,NA,RVF,NA,NA,0.8498017869096657,1.9319901972880966,left,21,51.70663441362591,2003,716,NA
130,K02,control,non-inducer,NA,LVF,NA,NA,1.1331097293482344,2.2275432742681973,left,0,NA,1641,691,verdana
131,K02,control,gabor,NA,LVF,NA,NA,1.4414174428811748,1.520669454748269,left,313,47.4627174887089,1638,790,NA
132,K02,control,inducer,A,LVF,NA,NA,0.9915180094567404,2.350211370095218,left,0,NA,1637,774,verdana
133,K02,control,inducer,9,RVF,right,3.657432642787171,1.4661508402500658,1.5978423248961975,left,0,NA,1997,638,times
134,K02,control,inducer,9,RVF,right,4.440135129629198,1.399440928529657,2.0527250104486168,left,0,NA,1990,636,times
135,K02,control,inducer,9,LVF,left,2.4239368665216716,1.0581157742567484,1.730371737251958,left,0,NA,1641,671,times
136,K02,control,non-inducer,NA,LVF,left,1.9588191770367303,1.1661344288581859,2.2041534002264975,left,0,NA,1646,725,comicsans
137,K02,control,inducer,E,LVF,left,9.240942088145857,0.7998239242224372,2.028397007024846,left,0,NA,1634,857,verdana
138,K02,control,gabor,NA,LVF,NA,NA,1.058357849060485,2.188714950954042,left,313,48.196053667224994,1639,855,NA
139,K02,control,gabor,NA,RVF,NA,NA,1.124776460819703,2.310195630968881,left,334,48.511253753936906,2004,642,NA
140,K02,control,gabor,NA,LVF,left,2.769171485060724,0.9495283774117524,1.5959922887884765,left,328,54.61712937727593,1644,845,NA
141,K02,control,gabor,NA,LVF,NA,NA,0.983138237287676,1.938301126403778,left,76,53.92812602296636,1645,861,NA
142,K02,control,non-inducer,?,RVF,NA,NA,1.4578124157769707,2.296682630476892,left,0,NA,1996,850,comicsans
143,K02,control,non-inducer,?,LVF,left,9.107373441155687,1.4161571555996488,1.9811692995145878,left,0,NA,1639,691,times
144,K02,control,gabor,NA,LVF,NA,NA,1.2995384854148142,1.5582853268900543,left,251,48.47951249429684,1636,782,NA
145,K02,control,inducer,E,LVF,left,1.7827870828164123,1.3161798389132855,2.0968296156037693,left,0,NA,1632,643,arial
146,K02,control,non-inducer,#,LVF,left,1.0190148114488693,1.0911918674032677,2.029270414068501,left,0,NA,1638,646,times
147,K02,control,non-inducer,?,LVF,left,1.6465869411804306,0.9997916374563829,1.6574067802757373,left,0,NA,1643,707,comicsans
148,K02,control,gabor,NA,RVF,NA,NA,0.8831696203869797,2.034827896809075,left,164,52.018010965682514,1998,836,NA
149,K02,control,gabor,NA,RVF,right,10.028064403662029,1.3164100951612454,2.036000638220104,left,293,47.74393615481154,1990,699,NA
150,K02,control,non-inducer,NA,LVF,left,4.431327195770791,1.2664764051733073,1.554451164578662,left,0,NA,1647,758,comicsans
151,K02,control,gabor,NA,LVF,NA,NA,1.1746293946548576,2.0373052068185857,left,293,54.10707890775955,1645,852,NA
152,K02,control,gabor,NA,RVF,NA,NA,0.916691936603911,2.0505405506384404,left,24,49.63397690512962,1999,823,NA
153,K02,control,non-inducer,?,RVF,right,4.567762464454518,1.3661687011690447,2.1328934994860025,left,0,NA,2001,813,times
154,K02,control,non-inducer,NA,RVF,NA,NA,1.108144029934465,1.6486338088595658,left,0,NA,2006,808,arial
155,K02,control,non-inducer,?,RVF,NA,NA,1.1161290085519795,2.39170097353279,left,0,NA,1994,824,times
156,K02,control,non-inducer,#,RVF,right,6.181414824138301,0.9911936298381079,2.390115822017961,left,0,NA,2001,806,comicsans
157,K02,control,inducer,A,LVF,left,10.735189406344489,1.0498108564629547,1.726225937929703,left,0,NA,1641,750,arial
158,K02,control,non-inducer,?,RVF,NA,NA,1.4578229246217234,2.0473806596522692,left,0,NA,1995,688,arial
159,K02,control,non-inducer,?,LVF,NA,NA,1.06643043031454,2.4398144784166873,left,0,NA,1632,654,verdana
160,K02,control,non-inducer,?,LVF,left,7.3305730786373715,1.283098900838013,1.99553673595232,left,0,NA,1644,870,comicsans
161,K02,control,inducer,9,LVF,left,1.2725840929088008,0.8581759780622633,2.2381897414575675,left,0,NA,1643,668,times
162,K02,control,non-inducer,NA,RVF,NA,NA,0.9828722037859734,2.498738661682988,left,0,NA,2003,863,verdana
163,K02,control,gabor,NA,LVF,NA,NA,1.3911173810161017,2.4485297620144477,left,190,48.776921791064055,1637,807,NA
164,K02,control,gabor,NA,RVF,NA,NA,1.3583731198777969,1.5149754784618283,left,25,50.85229254971581,1997,863,NA
165,K02,control,non-inducer,NA,RVF,right,4.035634810372812,0.8248167303131595,2.2672955539005484,left,0,NA,1996,748,times
166,K02,control,gabor,NA,RVF,NA,NA,0.9830789389297934,1.862650926232035,left,31,49.586699392466045,1992,700,NA
167,K02,control,non-inducer,#,LVF,left,2.487984416924064,1.4247449740114462,2.4594206825774454,left,0,NA,1635,721,comicsans
168,K02,control,inducer,E,RVF,right,1.0969283263716534,1.316456125323839,2.1587149810839223,left,0,NA,1990,755,comicsans
169,K02,control,non-inducer,#,RVF,right,5.344301885712866,0.9581216541582762,1.7065745402698909,left,0,NA,1998,773,comicsans
170,K02,control,non-inducer,NA,RVF,NA,NA,1.2411769870791431,2.083239267664427,left,0,NA,1991,809,comicsans
171,K02,control,inducer,E,LVF,left,6.700508477792027,0.9664787879128198,2.428536274429145,left,0,NA,1644,709,times
172,K02,control,non-inducer,#,RVF,right,10.72730363081564,1.266165447588719,2.2849208481064025,left,0,NA,2004,736,times
173,K02,control,inducer,A,RVF,NA,NA,1.3914629062905988,2.440180418965565,left,0,NA,2005,864,arial
174,K02,control,gabor,NA,LVF,left,4.525089704390211,0.9578786688448417,2.094482441548518,left,59,52.9773590475127,1634,794,NA
175,K02,control,inducer,A,LVF,left,1.2895922380707816,0.8415439636260089,2.252895615059132,left,0,NA,1633,782,verdana
176,K02,control,gabor,NA,LVF,NA,NA,1.4661571175711288,1.6462855532683198,left,106,48.735423873434144,1640,804,NA
177,K02,control,non-inducer,NA,RVF,NA,NA,1.1998409021712177,2.272407456287316,left,0,NA,1996,637,times
178,K02,control,gabor,NA,LVF,NA,NA,0.9164487317998464,2.3664015648576973,left,69,55.52783855284065,1633,763,NA
179,K02,control,gabor,NA,RVF,NA,NA,1.0747985981324746,2.4219544611265076,left,61,48.92496765508845,1995,644,NA
180,K02,control,inducer,E,LVF,left,1.940665254038322,1.2494496455901754,1.7122747074182172,left,0,NA,1632,837,arial
181,K02,control,gabor,NA,LVF,left,4.268797801002165,1.274505624091944,1.5843345030485771,left,334,53.612519719989905,1645,762,NA
182,K02,control,gabor,NA,LVF,left,5.119806872365189,0.80781341617012,1.5004970356820335,left,246,52.893823234913135,1643,722,NA
183,K02,control,gabor,NA,RVF,NA,NA,0.8665274565255459,1.8727253579800531,left,191,52.00411224209445,1992,674,NA
184,K02,control,inducer,E,RVF,right,2.094901755148385,1.0830985138227334,1.7534093667489987,left,0,NA,1994,838,arial
185,K02,control,gabor,NA,RVF,right,1.5201315094195706,1.2831202467887124,1.9577605895247396,left,321,52.08573356401392,2001,841,NA
186,K02,control,non-inducer,#,RVF,right,2.0343826655380326,1.291154481722515,1.6164609686101916,left,0,NA,1995,842,arial
187,K02,control,inducer,A,RVF,right,3.589200079744387,0.9748086352810788,2.4547707967645986,left,0,NA,1996,764,times
188,K02,control,inducer,A,RVF,right,5.378406193171941,1.3911499029081824,1.646404212030006,left,0,NA,1996,704,verdana
189,K02,control,non-inducer,NA,LVF,left,1.3592759953007771,1.041228916170894,1.9056865725210326,left,0,NA,1636,804,times
190,K02,control,non-inducer,#,LVF,right,2.70686157330465,1.3664064284416781,2.3700089796434667,left,0,NA,1648,761,times
191,K02,control,inducer,9,LVF,left,0.9291657997132461,0.9164346028883301,2.3718697201790127,left,0,NA,1640,871,arial
192,K02,control,inducer,E,LVF,left,3.4933466198772294,1.4164176804119961,1.5037401333121112,left,0,NA,1635,783,verdana
193,K02,control,gabor,NA,LVF,NA,NA,1.1081318347119122,2.336370826593113,left,151,53.11800051588616,1639,804,NA
194,K02,control,inducer,9,LVF,left,1.902149515299243,1.1331275228340019,1.7573220376008216,left,0,NA,1638,805,comicsans
195,K02,control,gabor,NA,RVF,NA,NA,1.4328260839647555,2.367296255373543,left,54,55.60206556239527,1994,795,NA
196,K02,control,inducer,E,RVF,right,7.3247437317336335,1.2828307803697498,1.9215815135491263,left,0,NA,2002,666,arial
197,K02,control,non-inducer,NA,RVF,right,0.7588342923463642,0.8748097843108553,1.8208927456724417,left,0,NA,2002,633,verdana
198,K02,control,gabor,NA,LVF,left,2.5702400068666975,1.307836249873617,2.3334521667354995,left,4,47.286405249031816,1642,779,NA
199,K02,control,inducer,9,RVF,right,3.467466471847729,1.241456409507009,2.037176743011375,left,0,NA,1991,733,comicsans
200,K02,control,gabor,NA,LVF,left,1.1921865042668287,1.3413805321215477,2.490356877541533,left,286,51.24884569050165,1645,642,NA
201,K02,control,non-inducer,?,RVF,right,4.2615803958779,1.0665366003549934,2.2667086487503303,left,0,NA,2000,616,verdana
202,K02,control,inducer,A,RVF,right,10.119867520215848,1.1498194715668433,2.3262290579775495,left,0,NA,2003,797,arial
203,K02,control,gabor,NA,RVF,NA,NA,0.8915166967672121,2.4612457403780947,left,106,47.17955433684687,1991,627,NA
204,K02,control,inducer,A,LVF,left,2.0547205331531586,1.0664737701163176,1.9716980971324736,left,0,NA,1647,785,times
205,K02,control,non-inducer,?,LVF,left,2.8797101219388423,1.3580859738267463,1.5202971501662486,left,0,NA,1646,689,verdana
206,K02,control,gabor,NA,LVF,left,4.650630753187215,1.3578207440132246,2.2341820026714743,left,97,49.31794296613383,1646,617,NA
207,K02,control,gabor,NA,RVF,NA,NA,1.0248112823264819,1.5120085218995194,left,96,46.40301536800655,1995,820,NA
208,K02,control,gabor,NA,LVF,NA,NA,1.4578164417198423,2.261388371975191,left,157,52.864889115007095,1643,862,NA
209,K02,control,non-inducer,NA,RVF,NA,NA,0.9497857178030245,1.5452389259621473,left,0,NA,1999,699,verdana
210,K02,control,non-inducer,?,RVF,NA,NA,1.0661788281158806,1.6402049054360857,left,0,NA,1993,752,comicsans
211,K02,control,inducer,E,RVF,right,3.2243270654562366,0.9578335889736991,2.4774460852175464,left,0,NA,1997,687,times
212,K02,control,non-inducer,#,LVF,right,0.9603938440250204,0.9664712181283903,1.845637511990672,left,0,NA,1644,861,comicsans
213,K02,control,inducer,9,LVF,left,2.7354954447237105,1.1747877333746146,2.1586468038607336,left,0,NA,1632,665,verdana
214,K02,control,inducer,9,RVF,right,2.3437513898461475,0.8497938232103479,2.3341293437895114,left,0,NA,1991,670,arial
215,K02,control,gabor,NA,LVF,left,2.0636385661855456,1.1078484347463018,2.3940648942347913,left,90,48.688169012165105,1631,717,NA
216,K02,control,inducer,9,RVF,right,1.3282420241084765,1.2911621257826482,2.044478807681142,left,0,NA,1989,799,comicsans
217,K02,control,non-inducer,NA,LVF,NA,NA,1.3495041734640836,1.9442996072419083,left,0,NA,1641,711,verdana
218,K02,control,gabor,NA,RVF,NA,NA,1.1914289641918003,2.314397747801254,left,148,55.7431661224955,1990,636,NA
219,K02,control,gabor,NA,LVF,NA,NA,0.8584656467255627,2.2195617263942102,left,218,47.39992093989364,1642,836,NA
220,K02,control,non-inducer,#,LVF,left,4.968680517391476,0.941474088990617,2.0125221592843068,left,0,NA,1646,619,arial
221,K02,control,non-inducer,?,RVF,NA,NA,1.007788080496539,1.9682814425912838,left,0,NA,1998,747,times
222,K02,control,gabor,NA,RVF,NA,NA,0.9831126200315339,2.0352331428263786,left,154,47.784812189163674,1992,750,NA
223,K02,control,non-inducer,#,LVF,left,1.9305019184939738,1.2831238304115686,1.809653392446755,left,0,NA,1646,746,arial
224,K02,control,inducer,9,LVF,left,1.5009602576192265,1.3411591573176338,1.7804974787569197,left,0,NA,1645,676,arial
225,K02,control,non-inducer,#,LVF,left,1.8530449730242253,0.9828198047789556,2.3219551414274626,left,0,NA,1633,727,verdana
226,K02,control,gabor,NA,LVF,NA,NA,1.3749704147348893,1.7689298171798313,left,95,51.037262954580335,1642,828,NA
227,K02,control,inducer,9,RVF,right,3.0162337187739467,1.1497724029268284,1.6078250303433603,left,0,NA,1997,757,comicsans
228,K02,control,gabor,NA,RVF,NA,NA,1.0082303797207715,1.524360916313757,left,26,55.134063684976326,2003,638,NA
229,K02,control,gabor,NA,RVF,NA,NA,1.0914407931522874,2.0162961118871525,left,196,49.745843135993994,1998,662,NA
230,K02,control,gabor,NA,RVF,NA,NA,0.9581250666951746,2.435270254016562,left,107,50.041291036330655,2005,780,NA
231,K02,control,gabor,NA,RVF,NA,NA,1.2245089035714045,2.2330303166343897,left,132,48.001456289309935,2004,698,NA
232,K02,control,non-inducer,NA,LVF,left,7.534898483274446,0.9831398977948993,1.9180968605242625,left,0,NA,1645,821,arial
233,K02,control,non-inducer,#,RVF,right,1.6989565148696784,1.266169122735846,1.745671193107909,left,0,NA,1996,814,comicsans
234,K02,control,inducer,A,LVF,left,4.141109196298203,0.9164590609343577,2.080750858375125,left,0,NA,1635,658,times
235,K02,control,non-inducer,NA,LVF,left,2.9408590161428947,1.041445627703979,2.014488406254436,left,0,NA,1633,746,arial
236,K02,control,inducer,9,LVF,left,3.5714601171966933,0.8581527660235224,1.6023269005868062,left,0,NA,1644,649,verdana
237,K02,control,gabor,NA,RVF,right,3.9827660582286626,1.2331241310503174,1.9353042924079138,left,261,55.54746781072685,1993,862,NA
238,K02,control,gabor,NA,LVF,NA,NA,0.8414677736691374,1.6731069075986218,left,299,49.70787704782322,1638,713,NA
239,K02,control,non-inducer,#,LVF,left,0.7981247684883783,1.2497808296984658,1.6561739751527613,left,0,NA,1638,843,arial
240,K02,control,non-inducer,#,RVF,NA,NA,1.3078854625082386,2.2218218177040683,left,0,NA,1995,854,arial
241,K02,control,gabor,NA,RVF,NA,NA,1.2495447053424868,1.7149484983101726,left,48,49.3236013363282,2005,649,NA
242,K02,control,non-inducer,NA,LVF,left,8.648917373680888,0.9831070701739009,2.1195323028935404,left,0,NA,1647,693,times
243,K02,control,gabor,NA,RVF,NA,NA,0.874783970097269,2.1120504328857255,left,344,54.035367688166865,2002,749,NA
244,K02,control,gabor,NA,LVF,NA,NA,1.166177293795954,1.8679797971103835,left,359,47.1524640745535,1648,810,NA
245,K02,control,non-inducer,?,LVF,left,2.240741172705384,1.1245140957908006,2.0412629172326486,left,0,NA,1636,830,arial
246,K02,control,inducer,E,RVF,right,2.8012989836352062,0.8331539279743083,2.4375541151223112,left,0,NA,1996,870,comicsans
247,K02,control,inducer,A,LVF,left,1.8739249391110206,0.8081386373087298,2.3398042302538915,left,0,NA,1643,704,comicsans
248,K02,control,non-inducer,#,LVF,left,1.5164089755089663,0.8914749460054736,2.11246261079265,left,0,NA,1643,717,verdana
249,K02,control,gabor,NA,LVF,NA,NA,1.3414180441568533,1.7594953350769127,left,156,53.363801759774205,1644,837,NA
250,K02,control,non-inducer,?,LVF,left,2.134166728091259,1.2497644029526782,1.9841285240494564,left,0,NA,1637,835,times
251,K02,control,gabor,NA,RVF,NA,NA,1.1911714838734042,2.1152412647008307,left,357,54.35919429429536,1992,836,NA
252,K02,control,non-inducer,NA,RVF,right,2.6702140993502326,0.8498583172922736,1.903979840368345,left,0,NA,1989,648,arial
253,K02,control,non-inducer,NA,RVF,NA,NA,0.8828704157040193,2.146592402649379,left,0,NA,2002,787,verdana
254,K02,control,inducer,A,RVF,right,4.3312871681901015,1.3581610079108941,1.8903826129421892,left,0,NA,2001,862,verdana
255,K02,control,inducer,E,RVF,left,3.136070137527895,1.2911734363660798,2.1235561317745186,left,0,NA,1991,752,verdana
256,K02,control,gabor,NA,RVF,NA,NA,1.249503584372178,2.435330724879622,left,175,54.310342407048665,1994,623,NA
257,K02,control,gabor,NA,LVF,NA,NA,1.349823950177779,2.0262424465971467,left,359,50.85774112003062,1644,654,NA
258,K02,control,gabor,NA,LVF,NA,NA,1.3078403845856883,2.1112967585592446,left,353,55.935325084743454,1631,648,NA
259,K02,control,gabor,NA,LVF,left,3.9876269056258025,0.9081236809552138,2.2785929413910684,left,327,51.49196146134497,1644,805,NA
260,K02,control,inducer,A,RVF,right,2.4926717181660933,1.016451943649372,1.844532275767578,left,0,NA,1991,643,verdana
261,K02,control,inducer,9,LVF,left,1.183241101949534,1.0914653633062699,1.8123833269028562,left,0,NA,1643,723,times
262,K02,control,non-inducer,?,LVF,left,4.57668205255959,1.016447149074338,1.8184411806112721,left,0,NA,1640,642,arial
263,K02,control,gabor,NA,LVF,left,4.443668566655106,1.2495181450312884,2.4324870646570926,left,112,50.463878536342776,1634,828,NA
264,K02,control,inducer,E,RVF,right,3.9538161959617355,1.4744782565303467,2.258364024480665,left,0,NA,2004,762,times
265,K02,control,non-inducer,#,RVF,right,8.353795295779491,1.3245038320828826,2.4238845524935595,left,0,NA,2002,833,verdana
266,K02,control,inducer,E,LVF,left,2.4235984826218555,1.316160039411443,2.1888627011661552,left,0,NA,1640,626,comicsans
267,K02,control,inducer,A,LVF,NA,NA,1.1914627818850931,2.2214791701860372,left,0,NA,1639,839,times
268,K02,control,non-inducer,#,LVF,left,5.527744214117774,1.3664413383030478,2.1048712153692892,left,0,NA,1632,725,comicsans
269,K02,control,non-inducer,#,RVF,NA,NA,1.449496016312878,1.9243449918030684,left,0,NA,2005,711,verdana
270,K02,control,inducer,A,LVF,left,5.662443088213877,1.0664817477254473,2.222101405662276,left,0,NA,1643,861,arial
271,K02,control,non-inducer,?,RVF,NA,NA,1.0581093570081066,1.8537817973147095,left,0,NA,1994,868,arial
272,K02,control,inducer,9,RVF,right,3.801854766749784,1.3411694121759865,2.092564555318585,left,0,NA,1998,657,arial
273,K02,control,gabor,NA,RVF,NA,NA,0.9915077459745589,1.7966478359813842,left,88,52.737992423079696,1992,723,NA
274,K02,control,gabor,NA,RVF,NA,NA,1.0581164705617994,2.2168409478353475,left,316,50.781851807437356,2003,863,NA
275,K02,control,gabor,NA,LVF,left,8.905534287339833,1.4497701342452274,1.7749199341122752,left,267,53.86099757318482,1638,725,NA
276,K02,control,gabor,NA,LVF,left,6.795501671236707,0.8495387912271326,2.2231555947873036,left,186,52.91356587120005,1638,839,NA
277,K02,control,inducer,9,RVF,right,4.009480036438617,1.2079076709578658,2.1302211540323768,left,0,NA,2002,625,verdana
278,K02,control,inducer,9,RVF,right,3.3186674392272835,1.1831018105212934,1.5733344454354743,left,0,NA,1994,870,times
279,K02,control,inducer,A,RVF,NA,NA,1.1828464986811014,2.3146502583958535,left,0,NA,2005,741,comicsans
280,K02,control,non-inducer,?,LVF,left,6.2497319831572895,1.0828689280087929,2.2486808759287356,left,0,NA,1647,698,comicsans
281,K02,control,gabor,NA,LVF,left,7.80015227275544,0.8245441018016209,2.2569802168700344,left,331,46.75726422908868,1632,812,NA
282,K02,control,inducer,E,RVF,NA,NA,1.4829067923419643,2.2545335731040486,left,0,NA,2001,794,verdana
283,K02,control,gabor,NA,LVF,NA,NA,1.266177366291231,1.993599642021365,left,19,52.17221225862302,1647,802,NA
284,K02,control,gabor,NA,RVF,NA,NA,1.4244845148514287,1.6197204505127007,left,70,50.90548149265152,2004,710,NA
285,K02,control,gabor,NA,LVF,left,6.174250602512984,1.49116536033398,2.2721549226946665,left,285,46.894849844720895,1636,791,NA
286,K02,control,non-inducer,#,RVF,right,8.67301074275565,1.0495296992521617,1.765539713363363,left,0,NA,1994,808,arial
287,K02,control,non-inducer,?,RVF,right,3.15546687492224,1.449495017616755,1.5614681952879366,left,0,NA,1995,871,arial
288,K02,control,inducer,9,LVF,left,1.7035526888303139,1.4330969345737685,2.2306883196438596,left,0,NA,1645,843,comicsans
1,K03,control,non-inducer,0,RVF,right,7.155076894176318,0.966713142906201,2.284726500851513,left,0,NA,2003,770,times
2,K03,control,inducer,4,RVF,right,1.7817519126739398,1.1081204900767716,1.6407871018454743,left,0,NA,2002,734,times
3,K03,control,non-inducer,W,RVF,right,9.727793651716752,1.3411725799320493,2.108675216704663,left,0,NA,2000,829,verdana
4,K03,control,gabor,NA,LVF,NA,NA,1.058142677597516,1.8719532010014495,left,169,55.55420674620789,1646,813,NA
5,K03,control,non-inducer,W,LVF,NA,NA,0.8248269940115733,1.7770452747313517,left,0,NA,1646,807,arial
6,K03,control,gabor,NA,RVF,NA,NA,1.2583129280559433,2.296223825111429,left,195,52.64419685405925,2003,795,NA
7,K03,control,gabor,NA,RVF,NA,NA,1.491148343397981,1.6560432548309523,left,12,52.62285514790799,1994,859,NA
8,K03,control,gabor,NA,RVF,right,4.917811388990458,1.0081413916207111,2.153704586926518,left,128,46.557199022231444,1999,834,NA
9,K03,control,gabor,NA,LVF,NA,NA,1.0664405105417245,1.8837970067916037,left,222,46.32982434229628,1641,831,NA
10,K03,control,gabor,NA,LVF,NA,NA,1.357840001034674,2.4233079555075987,left,48,55.06759183009918,1644,672,NA
11,K03,control,inducer,R,RVF,right,4.7780934250167775,1.1245186892813308,2.4397438421377773,left,0,NA,2003,751,times
12,K03,control,gabor,NA,LVF,NA,NA,1.0498150323919617,1.8035867810735495,left,66,54.94522603563382,1631,858,NA
13,K03,control,non-inducer,0,LVF,left,8.27706193863446,1.0498151209549178,2.196443651959348,left,0,NA,1641,755,times
14,K03,control,gabor,NA,RVF,NA,NA,1.1912409653580198,1.9970400581577108,left,269,47.29309283303367,1993,668,NA
15,K03,control,gabor,NA,LVF,left,8.16279103762281,0.824849816652204,2.427525260957373,left,278,53.84093078797436,1635,869,NA
16,K03,control,gabor,NA,RVF,NA,NA,1.266505414953599,1.8787616064755273,left,167,52.068717066058575,2000,789,NA
17,K03,control,gabor,NA,LVF,NA,NA,1.2913341770174611,1.9243393570918315,left,25,46.706903459117775,1640,618,NA
18,K03,control,inducer,R,LVF,left,5.814102920974165,0.9745399783641915,2.160579270374339,left,0,NA,1645,648,times
19,K03,control,inducer,R,RVF,NA,NA,0.8081635862545227,1.9642985435310008,left,0,NA,2005,741,times
20,K03,control,non-inducer,?,LVF,NA,NA,1.191476316321996,2.060861829450367,left,0,NA,1641,736,arial
21,K03,control,non-inducer,?,RVF,NA,NA,0.8581624582500353,1.6287138724451244,left,0,NA,2001,623,comicsans
22,K03,control,inducer,R,RVF,right,8.254778224985102,0.8248102732691223,2.3604012827669876,left,0,NA,1990,734,arial
23,K03,control,non-inducer,?,RVF,right,8.832007521624291,1.3995180403189806,2.2781750658144326,left,0,NA,1999,695,comicsans
24,K03,control,inducer,R,LVF,NA,NA,0.8331402037958924,2.4402613157749364,left,0,NA,1646,709,verdana
25,K03,control,inducer,M,RVF,NA,NA,0.9331526952710192,1.839746030066504,left,0,NA,2004,614,comicsans
26,K03,control,gabor,NA,RVF,NA,NA,1.3166537231945767,2.435772304076984,left,269,50.8543277019464,1993,844,NA
27,K03,control,inducer,9,RVF,right,7.057286449040248,1.1748078025937048,2.309043183271419,left,0,NA,1992,772,times
28,K03,control,gabor,NA,LVF,NA,NA,1.2248344847685075,2.191967572684435,left,215,47.36653591297248,1648,837,NA
29,K03,control,non-inducer,N,RVF,right,6.549649282189421,0.9745666217661437,1.7491197750245386,left,0,NA,1994,623,comicsans
30,K03,control,inducer,M,RVF,NA,NA,1.483131032968231,1.6459624471502217,left,0,NA,1999,837,times
31,K03,control,non-inducer,0,LVF,left,3.0657535635498334,1.2744662574004906,1.6182927321365592,left,0,NA,1635,772,times
32,K03,control,inducer,4,RVF,NA,NA,0.9331381217746184,2.1461925303778413,left,0,NA,2000,802,times
33,K03,control,non-inducer,W,LVF,NA,NA,1.1831118671427703,1.5534399150323281,left,0,NA,1645,718,verdana
34,K03,control,gabor,NA,RVF,NA,NA,1.474501094089419,2.0153584523602746,left,55,52.96322991679659,2002,669,NA
35,K03,control,non-inducer,W,LVF,NA,NA,1.1331459773134611,2.304119758850023,left,0,NA,1631,618,verdana
36,K03,control,inducer,R,LVF,left,6.470313314960549,1.0748022203115397,2.2661560942457735,left,0,NA,1647,821,arial
37,K03,control,non-inducer,N,LVF,left,5.726468721221181,0.7914723353103454,2.4686490579587748,left,0,NA,1644,619,comicsans
38,K03,control,non-inducer,0,LVF,NA,NA,1.0914497064854913,2.320877896514286,left,0,NA,1637,749,comicsans
39,K03,control,non-inducer,N,RVF,right,9.761641893680235,1.2996255671775998,2.172439028912888,left,0,NA,1996,665,arial
40,K03,control,non-inducer,0,LVF,NA,NA,1.2664577707284934,2.28363911002111,left,0,NA,1644,854,times
41,K03,control,non-inducer,N,RVF,NA,NA,1.1661930118248165,1.5629469263336033,left,0,NA,1989,850,comicsans
42,K03,control,inducer,9,LVF,left,2.654176034744296,0.7998125849380813,1.7297008475375946,left,0,NA,1636,651,verdana
43,K03,control,non-inducer,W,RVF,NA,NA,1.091466545660296,1.9034348569963826,left,0,NA,1994,826,arial
44,K03,control,gabor,NA,RVF,NA,NA,0.858307080944769,1.5505910142739587,left,141,52.49261278108965,2003,766,NA
45,K03,control,gabor,NA,LVF,left,10.363179621698237,0.8998237036867067,2.1252254419894325,left,67,54.691892573578315,1635,710,NA
46,K03,control,non-inducer,?,LVF,NA,NA,1.3330772074868946,1.6481000756432576,left,0,NA,1639,863,times
47,K03,control,gabor,NA,LVF,NA,NA,1.166766140125901,1.6984462399060436,left,67,51.847384482919296,1642,804,NA
48,K03,control,gabor,NA,LVF,NA,NA,0.8414937487996212,1.5213355572308997,left,25,54.6812047276474,1635,660,NA
49,K03,control,gabor,NA,LVF,NA,NA,1.0997757677848767,2.09769768372068,left,189,53.60101793041194,1644,685,NA
50,K03,control,gabor,NA,RVF,NA,NA,0.8248241505812075,1.5922115569667883,left,203,51.21392158578948,1993,627,NA
51,K03,control,inducer,9,RVF,right,9.718415258720597,0.9498177322618631,2.0932566032070286,left,0,NA,1993,684,times
52,K03,control,gabor,NA,RVF,NA,NA,1.4245059100110211,2.061224266859961,left,29,46.13117905621751,1999,856,NA
53,K03,control,inducer,4,LVF,NA,NA,1.1997417736761236,2.289952713690462,left,0,NA,1646,795,comicsans
54,K03,control,gabor,NA,LVF,NA,NA,1.024864839983593,2.3526828633874626,left,59,51.61451267294301,1634,853,NA
55,K03,control,non-inducer,N,RVF,NA,NA,1.0914666496814789,2.271695445349958,left,0,NA,1990,774,times
56,K03,control,inducer,M,RVF,right,6.9556135843320135,0.9331311166963587,1.6513052458782282,left,0,NA,2000,659,comicsans
57,K03,control,inducer,4,LVF,NA,NA,0.8412804800104823,1.9752031676769324,left,0,NA,1639,677,verdana
58,K03,control,non-inducer,N,LVF,NA,NA,1.3661756451535894,1.7203463291230758,left,0,NA,1634,704,arial
59,K03,control,gabor,NA,LVF,NA,NA,0.9914181203837416,1.9570837706253612,left,307,54.384808922031425,1634,864,NA
60,K03,control,inducer,4,RVF,NA,NA,0.8498339685577321,1.6379994345959568,left,0,NA,2003,795,verdana
61,K03,control,gabor,NA,RVF,NA,NA,0.8747240894447259,2.3742243363758573,left,162,51.75586578225271,1991,799,NA
62,K03,control,non-inducer,?,RVF,NA,NA,1.16648877310422,1.9502719579175185,left,0,NA,1995,791,verdana
63,K03,control,non-inducer,0,LVF,left,3.9161486945235993,1.25785100978851,1.6394514442308523,left,0,NA,1644,658,comicsans
64,K03,control,non-inducer,?,LVF,left,5.211867893855015,1.499500973948443,2.384280165783993,left,0,NA,1634,678,times
65,K03,control,non-inducer,N,LVF,NA,NA,1.1830913987439544,2.2847997283140136,left,0,NA,1642,855,verdana
66,K03,control,non-inducer,W,LVF,left,5.743571210193295,1.1831859189510396,2.310209710358756,left,0,NA,1646,866,arial
67,K03,control,non-inducer,N,RVF,right,8.978088884175122,0.8414802566555863,1.757281937889577,left,0,NA,1990,805,arial
68,K03,control,non-inducer,W,RVF,NA,NA,1.2331526852292427,2.0241630247181077,left,0,NA,2002,643,times
69,K03,control,non-inducer,?,LVF,NA,NA,1.3745036456571142,1.7175538996703885,left,0,NA,1643,696,verdana
70,K03,control,gabor,NA,RVF,NA,NA,1.4249754996715183,2.256068334929177,left,262,47.04956066371345,1997,733,NA
71,K03,control,non-inducer,?,LVF,NA,NA,0.8248435664518183,2.1982112500398747,left,0,NA,1638,746,comicsans
72,K03,control,non-inducer,?,LVF,NA,NA,1.2581039249353125,2.2757755153283767,left,0,NA,1637,801,arial
73,K03,control,gabor,NA,LVF,NA,NA,0.9331523842542992,1.7586151614551504,left,158,49.21703916384378,1647,738,NA
74,K03,control,inducer,9,LVF,NA,NA,1.2748627406217565,2.308457767954683,left,0,NA,1643,629,arial
75,K03,control,gabor,NA,LVF,NA,NA,0.8664815144711611,2.2073022782140646,left,149,55.4125529080677,1633,661,NA
76,K03,control,gabor,NA,RVF,NA,NA,0.8497614605589661,2.1459383130146543,left,253,51.608365172968206,1996,672,NA
77,K03,control,gabor,NA,RVF,NA,NA,1.3165022581356425,2.2048193829343177,left,337,50.688888552653964,2006,865,NA
78,K03,control,inducer,M,RVF,NA,NA,1.2995125796078355,2.2475029181505115,left,0,NA,1998,842,comicsans
79,K03,control,inducer,4,RVF,right,8.4230593267175209,0.9498207981464475,2.153842794794921,left,0,NA,1995,626,comicsans
80,K03,control,non-inducer,W,RVF,NA,NA,1.2664652505836784,2.049958267201963,left,0,NA,1996,782,verdana
81,K03,control,gabor,NA,RVF,NA,NA,0.7914646969252317,2.0996802961588306,left,115,49.541075024031706,1991,766,NA
82,K03,control,inducer,R,RVF,NA,NA,1.0996428596972692,2.4308289594085375,left,0,NA,1997,817,comicsans
83,K03,control,gabor,NA,RVF,NA,NA,1.4245399580713638,1.657817394630456,left,353,46.01782185132438,1993,860,NA
84,K03,control,inducer,R,RVF,right,6.271947271498448,1.1912565460552287,2.4358427264420346,left,0,NA,1999,617,times
85,K03,control,inducer,R,RVF,right,3.2226001418857777,1.0664441098956559,2.4032691411341762,left,0,NA,1991,681,comicsans
86,K03,control,non-inducer,W,LVF,left,5.530175914069787,0.9164618737759156,1.518463202305973,left,0,NA,1632,814,times
87,K03,control,gabor,NA,LVF,NA,NA,1.200012565068846,2.0848058285749023,left,290,49.16207714679303,1634,736,NA
88,K03,control,gabor,NA,RVF,NA,NA,1.1411912493626915,2.352257186243417,left,205,50.870080264913646,1995,832,NA
89,K03,control,inducer,9,RVF,NA,NA,1.041471791031654,2.268852041543801,left,0,NA,1995,806,arial
90,K03,control,non-inducer,N,LVF,NA,NA,1.4661974259815906,2.49742425326886,left,0,NA,1644,681,verdana
91,K03,control,inducer,4,RVF,NA,NA,1.0414899196002807,1.817138807243261,left,0,NA,1990,821,comicsans
92,K03,control,inducer,4,LVF,NA,NA,1.0581455807673592,1.8710585145970269,left,0,NA,1633,864,arial
93,K03,control,non-inducer,0,LVF,left,4.824490562669325,0.9996135701903768,1.721830720992861,left,0,NA,1643,638,verdana
94,K03,control,non-inducer,?,RVF,NA,NA,1.3245123122101177,1.5186083807746003,left,0,NA,2003,764,verdana
95,K03,control,inducer,9,LVF,NA,NA,0.9578816519388056,1.8935092523431747,left,0,NA,1635,812,comicsans
96,K03,control,gabor,NA,LVF,NA,NA,0.8331731230841797,2.4243646833984376,left,355,46.630963221437874,1633,769,NA
97,K03,control,gabor,NA,RVF,NA,NA,0.8747558131326514,1.6787271656647924,left,110,48.358343630981494,2004,649,NA
98,K03,control,non-inducer,0,RVF,NA,NA,1.3997832488712447,2.49804412552084,left,0,NA,1997,831,comicsans
99,K03,control,non-inducer,?,LVF,left,6.075975122408181,1.1911574090659087,1.9201433902343013,left,0,NA,1647,697,comicsans
100,K03,control,inducer,R,LVF,left,5.333508642994275,1.3328379141903497,2.3905397420003034,left,0,NA,1639,616,comicsans
101,K03,control,non-inducer,W,RVF,NA,NA,1.3245078096761063,2.4100678140886242,left,0,NA,1997,864,comicsans
102,K03,control,inducer,M,RVF,NA,NA,0.8164977782653295,2.3771577853275248,left,0,NA,1995,633,times
103,K03,control,gabor,NA,LVF,NA,NA,1.2911759592034286,1.9948254051666503,left,271,55.32261060407693,1635,844,NA
104,K03,control,gabor,NA,LVF,NA,NA,1.4577674419197137,2.4020058111227702,left,188,54.00952756516249,1636,871,NA
105,K03,control,non-inducer,W,LVF,NA,NA,1.024785634784621,2.301185397377475,left,0,NA,1643,793,comicsans
106,K03,control,gabor,NA,RVF,NA,NA,1.1665748649484158,2.433664070572809,left,109,46.08831924691037,1994,854,NA
107,K03,control,gabor,NA,RVF,NA,NA,1.2828453953698045,2.230819683367481,left,167,51.85960839074022,2003,868,NA
108,K03,control,gabor,NA,RVF,NA,NA,1.2497730954132749,1.6538052105310639,left,34,49.477705318855286,1992,646,NA
109,K03,control,inducer,R,LVF,NA,NA,1.041448123904047,2.167466859810159,left,0,NA,1646,865,arial
110,K03,control,gabor,NA,LVF,NA,NA,1.4911655533292105,1.933795932669527,left,318,50.20473896289257,1642,637,NA
111,K03,control,gabor,NA,RVF,NA,NA,0.9748891459266815,2.1954212925642715,left,31,52.83996426175809,1995,643,NA
112,K03,control,gabor,NA,RVF,NA,NA,1.3497735798596295,2.3056800132341344,left,211,50.95388581480917,1997,641,NA
113,K03,control,inducer,M,LVF,left,7.3590686049633405,0.9745362018838932,2.2722676081465694,left,0,NA,1641,617,verdana
114,K03,control,inducer,M,RVF,NA,NA,0.874795682990225,2.467393399462073,left,0,NA,1993,847,verdana
115,K03,control,inducer,4,RVF,NA,NA,1.3245085357298194,1.8462564374163133,left,0,NA,2001,846,times
116,K03,control,gabor,NA,RVF,NA,NA,1.39142106537156,2.229987454966578,left,263,53.83927494943378,2001,700,NA
117,K03,control,non-inducer,?,LVF,NA,NA,1.3914315060433182,2.1145691688440977,left,0,NA,1638,827,comicsans
118,K03,control,inducer,M,RVF,NA,NA,0.9164765811628968,1.6903962533862678,left,0,NA,1996,688,arial
119,K03,control,inducer,9,RVF,NA,NA,0.9331329972073945,1.8455932090469753,left,0,NA,2001,862,verdana
120,K03,control,non-inducer,N,LVF,NA,NA,1.049816987054328,1.6510184154775693,left,0,NA,1632,847,verdana
121,K03,control,inducer,M,LVF,NA,NA,1.4828349493982387,1.8550086743525673,left,0,NA,1634,634,comicsans
122,K03,control,gabor,NA,RVF,NA,NA,0.9499997356360836,1.5106556323841183,left,337,51.98408455400762,1996,668,NA
123,K03,control,non-inducer,N,RVF,NA,NA,1.2244631938870043,1.772563146236157,left,0,NA,1998,667,verdana
124,K03,control,inducer,4,RVF,NA,NA,1.399499616191406,1.514377017234474,left,0,NA,1993,830,arial
125,K03,control,inducer,9,LVF,NA,NA,1.3661690396547783,2.040460315282485,left,0,NA,1643,682,times
126,K03,control,inducer,R,LVF,NA,NA,1.4661678351280898,1.5205954939279511,left,0,NA,1632,837,times
127,K03,control,inducer,9,RVF,right,5.122933955946792,1.41650253558646,2.272439161575598,left,0,NA,1998,726,comicsans
128,K03,control,non-inducer,?,RVF,right,6.398368967017632,1.3830580261105752,2.032112411036629,left,0,NA,1991,840,arial
129,K03,control,gabor,NA,RVF,NA,NA,0.8417109269134926,2.2461394794773577,left,165,49.83945914922795,1996,815,NA
130,K03,control,non-inducer,N,RVF,NA,NA,1.2411679338374597,2.4271704020140614,left,0,NA,1991,796,times
131,K03,control,non-inducer,W,LVF,NA,NA,1.224777066185652,2.3295386747146796,left,0,NA,1644,772,times
132,K03,control,gabor,NA,RVF,NA,NA,1.3912277160529811,1.7896413358425711,left,272,52.06727147491452,1991,837,NA
133,K03,control,inducer,4,RVF,NA,NA,1.1411852813553196,2.252317865161542,left,0,NA,2005,749,arial
134,K03,control,gabor,NA,RVF,NA,NA,1.0583295985425138,2.4605563953304026,left,195,47.11220626282624,1998,786,NA
135,K03,control,non-inducer,N,LVF,NA,NA,1.3414589077401615,2.251850436319361,left,0,NA,1640,746,arial
136,K03,control,gabor,NA,RVF,NA,NA,0.8748019476024638,2.440620216421811,left,302,54.20323914603473,2003,856,NA
137,K03,control,inducer,M,RVF,NA,NA,1.283100147792993,2.148105508184189,left,0,NA,2005,735,verdana
138,K03,control,non-inducer,N,LVF,NA,NA,1.0414585810799508,1.744272934357994,left,0,NA,1642,747,arial
139,K03,control,inducer,M,LVF,NA,NA,0.9747267397333417,2.384027323437354,left,0,NA,1636,663,verdana
140,K03,control,gabor,NA,RVF,NA,NA,0.7998294241133408,1.5143967937750475,left,345,48.60544359350129,1993,815,NA
141,K03,control,inducer,M,LVF,NA,NA,0.9498516917587949,1.6549851425520021,left,0,NA,1643,772,comicsans
142,K03,control,non-inducer,N,LVF,left,5.9340940383413,1.2078493530557353,2.044180039306842,left,0,NA,1645,859,times
143,K03,control,gabor,NA,RVF,NA,NA,1.2745120179761216,1.626450549332795,left,125,54.61047267503813,1990,615,NA
144,K03,control,gabor,NA,RVF,NA,NA,1.324573882212917,2.0495663026754682,left,252,46.39246868985394,1989,642,NA
145,K03,control,non-inducer,?,RVF,NA,NA,0.8164947422510522,2.2301618847809053,left,0,NA,1996,849,arial
146,K03,control,non-inducer,W,RVF,NA,NA,0.9331446088403936,2.265604932077579,left,0,NA,1996,776,comicsans
147,K03,control,non-inducer,0,RVF,NA,NA,1.3747787325878562,1.8964688952161382,left,0,NA,1998,771,arial
148,K03,control,non-inducer,0,RVF,right,5.668469111235936,1.0001390243974129,2.181125320447527,left,0,NA,2000,689,arial
149,K03,control,inducer,R,LVF,NA,NA,0.9748150951650132,2.0812619335038947,left,0,NA,1640,676,verdana
150,K03,control,gabor,NA,LVF,NA,NA,0.9912016384546405,1.5471570288919656,left,138,54.95676396702806,1632,843,NA
151,K03,control,inducer,M,LVF,left,5.23726706026855,0.866499878859031,1.7170008819424272,left,0,NA,1641,736,arial
152,K03,control,inducer,9,LVF,left,8.409024393960863,1.4330875373038907,2.302143252998598,left,0,NA,1633,770,times
153,K03,control,non-inducer,W,LVF,left,3.345390097170821,1.1164692699958323,2.390074385233333,left,0,NA,1634,668,times
154,K03,control,non-inducer,W,RVF,NA,NA,1.3911696599793686,2.1603452147237454,left,0,NA,1993,753,comicsans
155,K03,control,inducer,M,LVF,left,5.50151511711465,1.3495094526592766,2.019953361909457,left,0,NA,1631,665,times
156,K03,control,inducer,4,LVF,NA,NA,1.4664123384163759,1.5021904438274047,left,0,NA,1648,871,verdana
157,K03,control,inducer,9,LVF,NA,NA,1.0915256388047965,1.9608249439980123,left,0,NA,1641,635,times
158,K03,control,inducer,4,RVF,NA,NA,0.9581534052040297,1.864397054505309,left,0,NA,1998,806,arial
159,K03,control,inducer,4,LVF,NA,NA,0.833164918220973,2.1837280107024952,left,0,NA,1645,803,comicsans
160,K03,control,inducer,M,LVF,NA,NA,1.1247818690198983,2.3518790191914927,left,0,NA,1639,793,verdana
161,K03,control,non-inducer,0,LVF,NA,NA,0.8664939108516592,1.8483873779736486,left,0,NA,1642,806,arial
162,K03,control,gabor,NA,LVF,NA,NA,0.8912117285703971,2.202443736815103,left,113,54.297024625152225,1642,719,NA
163,K03,control,gabor,NA,RVF,NA,NA,1.0164533088732242,1.7030484317175567,left,45,53.73923353516836,1990,815,NA
164,K03,control,non-inducer,N,LVF,NA,NA,1.1245304038893664,1.8795301616596247,left,0,NA,1637,704,times
165,K03,control,inducer,9,RVF,NA,NA,1.2661776632508008,2.179047877725555,left,0,NA,1999,699,verdana
166,K03,control,non-inducer,N,RVF,NA,NA,0.8331308547030858,2.1972275585656176,left,0,NA,2003,634,times
167,K03,control,non-inducer,?,LVF,NA,NA,1.2663087938021818,2.177942833093615,left,0,NA,1634,837,verdana
168,K03,control,inducer,4,RVF,right,3.112664189523457,1.0331173829445106,2.165129569893111,left,0,NA,2000,847,verdana
169,K03,control,inducer,9,LVF,left,6.114119746969209,1.466170574537955,2.1499357026679062,left,0,NA,1646,686,comicsans
170,K03,control,non-inducer,W,LVF,left,3.9277241084164416,0.8748071906024961,1.6574049231100467,left,0,NA,1644,614,comicsans
171,K03,control,gabor,NA,RVF,NA,NA,1.000054738912695,1.6408914961078487,left,18,50.94769767012877,2002,844,NA
172,K03,control,inducer,9,LVF,left,2.600074084141852,0.9081563251570515,2.3970223745816215,left,0,NA,1647,618,comicsans
173,K03,control,gabor,NA,LVF,NA,NA,1.2747993087036775,1.748986559790034,left,172,48.71140636346214,1647,818,NA
174,K03,control,gabor,NA,LVF,NA,NA,1.0997373088916902,2.2320224170801444,left,266,52.16588513758034,1636,797,NA
175,K03,control,inducer,9,RVF,NA,NA,0.7998462334185206,2.00734927289015,left,0,NA,1990,649,comicsans
176,K03,control,gabor,NA,RVF,NA,NA,1.274825418635828,1.551443479448312,left,250,51.80593314419196,2004,699,NA
177,K03,control,gabor,NA,RVF,NA,NA,0.8081383939138505,1.8997767256395157,left,156,52.30725795018311,2004,844,NA
178,K03,control,inducer,M,LVF,NA,NA,0.8081487316112543,2.103284977787767,left,0,NA,1647,787,times
179,K03,control,gabor,NA,RVF,NA,NA,1.3497950245437096,2.3015288025778036,left,236,54.35288103576106,1993,658,NA
180,K03,control,inducer,9,LVF,left,6.355905566667843,1.1247870522806807,1.8121601158487874,left,0,NA,1642,698,arial
181,K03,control,gabor,NA,RVF,NA,NA,1.0997891414963306,2.332293474185044,left,292,52.816514946042965,1998,668,NA
182,K03,control,non-inducer,?,LVF,NA,NA,0.9331694160132429,1.9917874981750454,left,0,NA,1644,809,verdana
183,K03,control,inducer,R,RVF,NA,NA,1.0581034339575126,1.947758230892774,left,0,NA,1996,808,arial
184,K03,control,non-inducer,0,LVF,NA,NA,1.332838624786291,2.226091628494687,left,0,NA,1639,793,verdana
185,K03,control,non-inducer,N,RVF,NA,NA,0.9997945519521636,1.7250162374280578,left,0,NA,2005,839,comicsans
186,K03,control,inducer,4,LVF,NA,NA,1.1163970101356426,2.0396700643206356,left,0,NA,1638,783,times
187,K03,control,inducer,9,LVF,left,5.248643734587404,1.0661959629719604,1.9334412353194832,left,0,NA,1634,770,verdana
188,K03,control,non-inducer,0,RVF,NA,NA,0.9748245142245651,2.1644717414496744,left,0,NA,1997,832,verdana
189,K03,control,non-inducer,0,RVF,NA,NA,0.8747959198553872,2.460070649787488,left,0,NA,2001,771,verdana
190,K03,control,non-inducer,N,LVF,left,9.391436719173726,1.1664444903217372,1.6450052977865641,left,0,NA,1632,871,times
191,K03,control,gabor,NA,LVF,NA,NA,1.058150793896857,2.452975152306376,left,37,46.05475935275578,1643,683,NA
192,K03,control,gabor,NA,LVF,NA,NA,1.1666656817806142,1.5918080226398867,left,81,53.786060359196526,1642,637,NA
193,K03,control,non-inducer,W,LVF,left,2.716791752338395,1.4247521310971933,1.848800161123315,left,0,NA,1646,660,comicsans
194,K03,control,non-inducer,0,RVF,right,5.476703771977554,1.0747820629294438,2.4249709860376045,left,0,NA,2005,848,arial
195,K03,control,gabor,NA,RVF,NA,NA,1.3245591790109756,1.790595613889419,left,139,46.75515168858535,1991,849,NA
196,K03,control,gabor,NA,LVF,NA,NA,1.4250678715861795,2.284042521088412,left,238,53.509977298499145,1632,701,NA
197,K03,control,inducer,R,LVF,NA,NA,1.399503689276571,1.9244571958764158,left,0,NA,1634,825,times
198,K03,control,inducer,4,LVF,NA,NA,0.9998643967846874,1.580871790189791,left,0,NA,1639,741,times
199,K03,control,non-inducer,N,LVF,NA,NA,1.4161695120610602,2.0286192840426236,left,0,NA,1645,823,comicsans
200,K03,control,inducer,M,RVF,NA,NA,1.0081284360849168,1.911812399579738,left,0,NA,2002,745,arial
201,K03,control,gabor,NA,LVF,NA,NA,0.8745794080568885,2.343635543079383,left,5,52.56739914358194,1634,759,NA
202,K03,control,inducer,R,RVF,NA,NA,1.4078298690074007,2.0769467526585053,left,0,NA,1991,872,verdana
203,K03,control,gabor,NA,RVF,NA,NA,1.0164681378309979,1.8365958973255117,left,28,54.75117585217521,2000,695,NA
204,K03,control,non-inducer,0,RVF,NA,NA,1.1161892809504934,1.8288409728558261,left,0,NA,2005,653,comicsans
205,K03,control,non-inducer,?,RVF,NA,NA,1.4497474198578857,1.5236445608433133,left,0,NA,1990,778,verdana
206,K03,control,non-inducer,?,RVF,NA,NA,0.9415519041522202,1.5735880158355513,left,0,NA,1993,699,comicsans
207,K03,control,gabor,NA,RVF,NA,NA,0.8081403341648183,2.198052244820337,left,120,52.49728850379991,2003,771,NA
208,K03,control,inducer,M,LVF,left,3.587608851904406,1.0994749736391896,2.2674282124601115,left,0,NA,1646,750,times
209,K03,control,inducer,R,LVF,left,6.784232269646054,1.1831334457174307,1.7904605239709146,left,0,NA,1631,849,comicsans
210,K03,control,non-inducer,0,RVF,NA,NA,1.2830642469998566,1.9142731268449402,left,0,NA,2002,824,verdana
211,K03,control,non-inducer,N,RVF,NA,NA,1.4832765129367544,1.9238587445661242,left,0,NA,1995,754,arial
212,K03,control,non-inducer,N,LVF,left,4.630201635138292,1.16647525109056,1.5618656727734646,left,0,NA,1634,731,comicsans
213,K03,control,gabor,NA,LVF,NA,NA,0.8167061294825544,1.9573849881398488,left,56,50.0552911358982,1632,713,NA
214,K03,control,gabor,NA,RVF,NA,NA,1.4494953491976048,2.1351879290392297,left,22,49.85103089648657,1998,850,NA
215,K03,control,inducer,M,RVF,NA,NA,1.182847784223668,2.4242536516607114,left,0,NA,1997,870,times
216,K03,control,inducer,R,RVF,NA,NA,1.4328331257684113,1.603852011182885,left,0,NA,1998,761,verdana
217,K03,control,inducer,4,LVF,left,9.700593077455778,1.4911651980310126,2.1695595805778383,left,0,NA,1642,717,comicsans
218,K03,control,inducer,4,LVF,right,9.96161838082935,1.4829030877081095,1.842069803730607,left,0,NA,1648,872,times
219,K03,control,inducer,R,RVF,NA,NA,0.8165562195063103,1.8724025582312627,left,0,NA,2002,780,arial
220,K03,control,gabor,NA,LVF,left,10.112567774393028,0.9167393149491545,2.134719437124353,left,104,46.781269698975386,1636,805,NA
221,K03,control,gabor,NA,LVF,NA,NA,1.3497387305487791,2.033422963745948,left,143,55.96651037150373,1631,647,NA
222,K03,control,inducer,9,RVF,NA,NA,1.3248054226423847,1.8682842968861517,left,0,NA,2005,653,arial
223,K03,control,gabor,NA,LVF,NA,NA,0.8498444246879444,1.9813809171361934,left,7,55.168335947780555,1633,761,NA
224,K03,control,non-inducer,0,LVF,NA,NA,1.3330648265655327,1.5561352578807428,left,0,NA,1640,715,verdana
225,K03,control,non-inducer,?,RVF,NA,NA,1.0828942375901534,2.4175488921988735,left,0,NA,1997,683,arial
226,K03,control,gabor,NA,LVF,NA,NA,1.3831175301083931,2.054774809992863,left,23,54.04970279159144,1637,665,NA
227,K03,control,non-inducer,0,LVF,left,1.5151040521404866,0.8749915636763035,2.470263534017402,left,0,NA,1642,647,comicsans
228,K03,control,gabor,NA,LVF,NA,NA,0.9164941227991221,2.224568206486805,left,293,53.737289995391905,1636,694,NA
229,K03,control,inducer,R,RVF,NA,NA,1.2914504086438683,1.9781292010037241,left,0,NA,1992,812,verdana
230,K03,control,non-inducer,0,LVF,left,2.933092254039366,1.433112773926041,1.674780346676784,left,0,NA,1643,624,arial
231,K03,control,non-inducer,0,LVF,NA,NA,0.8498225793782694,2.020171802298095,left,0,NA,1633,742,arial
232,K03,control,inducer,M,LVF,NA,NA,0.8664973021641345,2.0377606113648175,left,0,NA,1639,804,comicsans
233,K03,control,gabor,NA,RVF,NA,NA,1.3331260792747344,1.7133269685135462,left,5,49.46919941153014,2004,834,NA
234,K03,control,non-inducer,0,RVF,right,3.650525322500471,1.0078672676099814,2.1115894952332415,left,0,NA,2006,809,comicsans
235,K03,control,gabor,NA,RVF,right,10.172733614637764,1.341186338810985,2.2020477172231434,left,46,54.19170060783435,2000,732,NA
236,K03,control,gabor,NA,RVF,NA,NA,1.0330756768571518,1.9053027695936122,left,350,55.700127091512286,2000,699,NA
237,K03,control,non-inducer,0,RVF,right,6.43976402552471,1.0745491115339973,1.934054552625363,left,0,NA,1994,697,times
238,K03,control,gabor,NA,RVF,NA,NA,0.8165227987101389,2.298267286019165,left,133,49.047529386542344,2000,872,NA
239,K03,control,inducer,9,LVF,NA,NA,1.0495391772174116,2.132001418634298,left,0,NA,1637,743,verdana
240,K03,control,gabor,NA,LVF,NA,NA,1.25809967472469,2.3898741500603857,left,164,52.941569009055534,1645,779,NA
241,K03,control,inducer,R,LVF,NA,NA,1.1161733604139954,2.045643903209168,left,0,NA,1638,720,arial
242,K03,control,non-inducer,W,RVF,NA,NA,0.9331287027143844,2.25402442448998,left,0,NA,2003,684,arial
243,K03,control,inducer,4,LVF,NA,NA,1.0164802045983379,2.090954657344096,left,0,NA,1643,777,verdana
244,K03,control,inducer,R,RVF,NA,NA,1.2661760340170076,1.7272334089753612,left,0,NA,2003,671,comicsans
245,K03,control,inducer,M,LVF,left,9.162730700412794,1.3497894561151043,2.3415104282803854,left,0,NA,1638,737,arial
246,K03,control,inducer,9,RVF,right,9.920074034379468,0.9164719746077026,2.2455917444934537,left,0,NA,1993,717,verdana
247,K03,control,gabor,NA,LVF,NA,NA,1.4911877539370835,2.134262163903704,left,64,51.20122154596228,1641,730,NA
248,K03,control,gabor,NA,LVF,NA,NA,0.8164986670335566,2.1073798380372377,left,268,51.58801463595674,1637,860,NA
249,K03,control,gabor,NA,RVF,right,10.201846318636854,1.0000174169263119,1.9583496746401257,left,293,52.334186712013874,2003,757,NA
250,K03,control,non-inducer,?,LVF,NA,NA,1.474517519272922,1.5202295055683672,left,0,NA,1640,718,times
251,K03,control,non-inducer,N,RVF,right,10.048238977651636,1.0581149528425158,2.173391857842047,left,0,NA,1994,786,verdana
252,K03,control,non-inducer,?,LVF,left,4.796073602688921,1.4331201796294408,2.241808225952281,left,0,NA,1645,746,arial
253,K03,control,non-inducer,W,RVF,NA,NA,1.3664480359102527,1.6725160976096467,left,0,NA,1997,641,times
254,K03,control,inducer,M,LVF,NA,NA,1.2831028727905505,1.6657671821114688,left,0,NA,1644,785,arial
255,K03,control,non-inducer,W,RVF,NA,NA,0.9414897307124193,1.884265851535782,left,0,NA,1995,627,arial
256,K03,control,non-inducer,0,RVF,NA,NA,1.3078475419542883,1.7616442901676619,left,0,NA,1993,843,times
257,K03,control,non-inducer,W,RVF,NA,NA,1.0414493834277891,1.5681886510497036,left,0,NA,1998,616,verdana
258,K03,control,inducer,4,RVF,NA,NA,1.083115321891455,1.9624551187464092,left,0,NA,2004,830,comicsans
259,K03,control,inducer,M,RVF,right,8.000516598485774,0.9914580345239301,2.0211121154937857,left,0,NA,1991,660,arial
260,K03,control,gabor,NA,LVF,NA,NA,1.358093198374263,2.0961142347745434,left,7,48.67306810800799,1646,662,NA
261,K03,control,gabor,NA,LVF,NA,NA,1.1581346018829208,1.9994699141608947,left,86,51.84208071244289,1642,838,NA
262,K03,control,inducer,9,LVF,left,5.399936801437434,1.4414593921865162,2.4400492003407592,left,0,NA,1632,678,arial
263,K03,control,non-inducer,N,RVF,left,8.58690471043883,1.1498779271432795,2.4464596408438553,left,0,NA,1999,623,verdana
264,K03,control,inducer,9,RVF,right,8.103610808820122,1.3247878430029232,1.8752213742571358,left,0,NA,2000,686,times
265,K03,control,gabor,NA,LVF,left,5.085974926468225,1.2661728497005242,1.5000413671417343,left,52,46.59575661721759,1641,711,NA
266,K03,control,inducer,M,RVF,right,5.512702382355201,1.324509172175567,1.9362879181736918,left,0,NA,2005,670,verdana
267,K03,control,non-inducer,?,RVF,right,7.47255574427345,1.3580918060060867,2.467433913761733,left,0,NA,1994,745,times
268,K03,control,gabor,NA,RVF,right,5.761704408007063,1.2412387415897683,2.2349445866343953,left,231,53.47940299606167,2001,832,NA
269,K03,control,non-inducer,?,RVF,right,7.736206960364143,0.8749075892083056,2.31576772005019,left,0,NA,2000,672,times
270,K03,control,gabor,NA,LVF,NA,NA,1.3828535954917243,2.0077618833468818,left,32,50.13100332183377,1647,669,NA
271,K03,control,inducer,R,LVF,NA,NA,1.0248073029688385,2.1153218399255227,left,0,NA,1645,698,verdana
272,K03,control,inducer,4,RVF,NA,NA,1.4912024304076112,2.368219403956477,left,0,NA,1995,826,verdana
273,K03,control,gabor,NA,LVF,NA,NA,0.7995902667998962,2.2174069099502542,left,243,55.3036455474392,1633,622,NA
274,K03,control,inducer,9,RVF,NA,NA,1.2745063455267882,2.1190403645117395,left,0,NA,1999,661,arial
275,K03,control,non-inducer,W,LVF,NA,NA,1.4831063586407254,2.485633242505922,left,0,NA,1632,861,arial
276,K03,control,non-inducer,?,RVF,right,8.26953036190207,1.2913242244885623,2.0069511789462373,left,0,NA,1997,749,times
277,K03,control,gabor,NA,LVF,NA,NA,1.1661915895865604,1.6087462894129878,left,222,48.57176085768321,1634,785,NA
278,K03,control,gabor,NA,LVF,NA,NA,0.9414856432149463,2.25272124416264,left,250,50.66915204334896,1636,839,NA
279,K03,control,non-inducer,W,RVF,NA,NA,1.2495126262601843,2.4497285533233644,left,0,NA,1993,847,times
280,K03,control,gabor,NA,LVF,NA,NA,1.466161155478403,2.197501640224206,left,101,50.167754453321315,1638,828,NA
281,K03,control,gabor,NA,LVF,NA,NA,1.107861842740931,2.042474393323375,left,209,48.74468856328343,1642,669,NA
282,K03,control,inducer,R,LVF,left,9.053353644787421,1.0911918294850693,2.334529359179979,left,0,NA,1636,861,comicsans
283,K03,control,gabor,NA,LVF,NA,NA,0.9831395859237091,1.5740179760276667,left,213,55.1502163085067,1633,814,NA
284,K03,control,gabor,NA,LVF,NA,NA,0.9665372115605351,2.1848889858157667,left,99,48.76261941877312,1632,861,NA
285,K03,control,inducer,9,RVF,right,9.953729135066169,1.3245784248447308,2.191849748339404,left,0,NA,1996,757,comicsans
286,K03,control,inducer,4,LVF,NA,NA,0.9998444917264351,1.7440467685658638,left,0,NA,1640,792,arial
287,K03,control,non-inducer,W,LVF,NA,NA,1.1079581981321098,2.3020274460599404,left,0,NA,1634,791,verdana
